#F lc4O8_d0025_a
#E 1095882141
#D Wed Sep 22 15:42:21 2004
#C 4O8  User = clegg
#O0 Two Theta     Theta       Chi       Phi  Attenuation  Detector  Tab Vert   Tab Hor
#O1   Ion #2    Hor #4   Vert #4   T.V. #3    Ion #1  Mono Down  Mono Trav   Mono Up
#O2  T.V. #2    Hor #3   Vert #3   Mirdhor  Mirdvert   Miruhor  Miruvert    T.V.#1
#O3   Bot #2    Top #2    Hor #1   Vert #1  S5 Bottom    S5 Top   S5 Left  S5 Right
#O4 Analyzer     Zscan  

#S 1  ascan  tabv -1.33621 2.66379  20 1
#D Wed Sep 22 15:44:13 2004
#T 1  (Seconds)
#G0 0 0 0 0 0 1 0 0 0 0 0 0
#G1 6.28318 6.28318 6.28318 90 90 90 1 1 1 90 90 90 2 0 0 2 1 0 24 12 0 0 0 0 24 3.23 100 0 0 0 1.23984 1.45863
#G2 0
#Q 0 0 0
#P0 0 0 0 0 5 -23 0.66378947 0.12095238
#P1 7.997206 -29.999365 23.799848 0 60.999492 10.94175 252.94576 10.94175
#P2 -67.000254 -18.001016 37.5 3.479807 2.6301753 2.8956058 -0.81978664 -43.999873
#P3 2.000254 6.7995936 11.000127 35.819787 0.5 0.5 0.5 0.5
#P4 -11.1895 18.93736 
#N 10
#L Tab Vert  H  K  L  Epoch  Seconds  Ion 3  Temperature  Detector  Monitor
-1.3362105 0 0 0 136 1 102061 80.004 248 452
-1.1362105 0 0 0 139 1 102075 80.001 364 484
-0.93621053 0 0 0 143 1 102068 80.005 519 540
-0.73621053 0 0 0 146 1 102059 80.001 750 656
-0.53621053 0 0 0 149 1 102037 80.003 1032 791
-0.33621053 0 0 0 152 1 102009 80.003 1541 889
-0.13621053 0 0 0 156 1 101975 80.004 2530 1241
0.063789474 0 0 0 159 1 101932 80.001 5145 1978
0.26378947 0 0 0 162 1 101880 80.002 18021 4537
0.46378947 0 0 0 166 1 101828 80.001 49760 9545
0.66378947 0 0 0 169 1 101774 80.003 74414 14852
0.86378947 0 0 0 172 1 101697 80 79826 17129
1.0637895 0 0 0 175 1 101620 80.001 69052 17658
1.2637895 0 0 0 179 1 101551 80.001 33863 15549
1.4637895 0 0 0 182 1 101484 80.003 8343 10487
1.6637895 0 0 0 185 1 101402 80.001 2819 5218
1.8637895 0 0 0 188 1 101313 80.003 1607 2682
2.0637895 0 0 0 192 1 101222 80.003 995 1787
2.2637895 0 0 0 195 1 101121 80.002 534 1280
2.4637895 0 0 0 198 1 101020 80 239 948
2.6637895 0 0 0 202 1 100907 80.002 82 688

#S 2  qscan  -0.005 0.005 80 1
#D Wed Sep 22 15:46:47 2004
#T 1  (Seconds)
#G0 0 0 0 0 0 1 0 0 0 0 0 0
#G1 6.28318 6.28318 6.28318 90 90 90 1 1 1 90 90 90 2 0 0 2 1 0 24 12 0 0 0 0 24 3.23 100 0 0 0 1.23984 1.45863
#G2 0
#Q 0 0 0
#P0 0 0 0 0 5 -23 0.98094737 0.12095238
#P1 7.997206 -29.999365 23.799848 0 60.999492 10.94175 252.94576 10.94175
#P2 -67.000254 -18.001016 37.5 3.479807 2.6301753 2.8956058 -0.81978664 -43.999873
#P3 2.000254 6.7995936 11.000127 35.819787 0.5 0.5 0.5 0.5
#P4 -11.1895 18.93736 
#N 7
#L Q  Epoch  Seconds  Ion 3  Temperature  Monitor  Detector
-0.005 268 1 101380 80.007 17530 80
-0.004875 270 1 101383 80.005 17637 114
-0.00475 271 1 101381 80.006 17465 105
-0.004625 272 1 101373 80.006 17792 90
-0.0045 274 1 101381 80.006 17574 119
-0.004375 275 1 101372 80.004 17765 107
-0.00425 276 1 101372 80.005 17572 119
-0.004125 278 1 101365 80.006 17626 120
-0.004 279 1 101364 80.006 17689 149
-0.003875 280 1 101356 80.005 17319 135
-0.00375 282 1 101361 80.006 17556 147
-0.003625 283 1 101359 80.007 17868 151
-0.0035 284 1 101355 80.006 17313 194
-0.003375 285 1 101354 80.004 17532 193
-0.00325 287 1 101354 80.007 17527 203
-0.003125 288 1 101347 80.006 17780 204
-0.003 289 1 101348 80.005 17548 257
-0.002875 291 1 101351 80.007 17374 230
-0.00275 292 1 101341 80.007 17706 268
-0.002625 293 1 101342 80.006 17476 314
-0.0025 295 1 101338 80.005 17644 345
-0.002375 296 1 101333 80.006 17591 363
-0.00225 297 1 101330 80.007 17356 413
-0.002125 299 1 101327 80.006 17308 532
-0.002 300 1 101332 80.004 17824 568
-0.001875 301 1 101327 80.006 17801 657
-0.00175 303 1 101322 80.004 17677 780
-0.001625 304 1 101321 80.004 17314 973
-0.0015 305 1 101324 80.006 17797 1268
-0.001375 306 1 101325 80.004 17614 1805
-0.00125 308 1 101311 80.004 17740 2689
-0.001125 309 1 101315 80.005 17681 4606
-0.001 310 1 101310 80.006 17822 10249
-0.000875 312 1 101307 80.006 17854 23140
-0.00075 313 1 101299 80.003 17483 42319
-0.000625 314 1 101303 80.003 17356 60808
-0.0005 316 1 101301 80.003 17662 70935
-0.000375 317 1 101302 80.003 17538 75446
-0.00025 318 1 101299 80.005 17697 77946
-0.000125 320 1 101292 80.004 17621 77802
0 321 1 101287 80.004 17706 77017
0.000125 322 1 101288 80.006 17570 74849
0.00025 324 1 101281 80.003 17613 69034
0.000375 325 1 101283 80.004 17712 62637
0.0005 326 1 101279 80.006 17550 54884
0.000625 328 1 101274 80.005 17794 46875
0.00075 329 1 101274 80.006 17630 41268
0.000875 330 1 101277 80.006 17675 35828
0.001 331 1 101270 80.004 17695 31894
0.001125 333 1 101266 80.006 17541 26893
0.00125 334 1 101269 80.006 17722 23473
0.001375 335 1 101263 80.004 17354 19914
0.0015 337 1 101263 80.006 17540 16885
0.001625 338 1 101259 80.007 17894 14184
0.00175 339 1 101253 80.006 17671 11904
0.001875 341 1 101248 80.007 17541 9925
0.002 342 1 101251 80.004 17560 8434
0.002125 343 1 101225 80.004 17706 7200
0.00225 345 1 101245 80.006 17718 6366
0.002375 346 1 101243 80.007 17625 5393
0.0025 347 1 101240 80.004 17513 4519
0.002625 349 1 101244 80.004 17482 3774
0.00275 350 1 101238 80.007 17687 2867
0.002875 351 1 101235 80.006 17527 2103
0.003 352 1 101234 80.004 17719 1376
0.003125 354 1 101227 80.008 17594 734
0.00325 355 1 101223 80.006 17710 450
0.003375 356 1 101220 80.004 17568 292
0.0035 358 1 101222 80.006 17673 210
0.003625 359 1 101222 80.007 17658 169
0.00375 360 1 101218 80.006 17406 161
0.003875 362 1 101217 80.006 17481 112
0.004 363 1 101206 80.007 17620 106
0.004125 364 1 101212 80.005 17665 91
0.00425 366 1 101208 80.007 17507 88
0.004375 367 1 101204 80.005 17623 84
0.0045 368 1 101201 80.005 17508 77
0.004625 370 1 101201 80.006 17608 59
0.00475 371 1 101200 80.004 17356 61
0.004875 372 1 101205 80.008 17755 46
0.005 374 1 101200 80.004 17794 54

#S 3  qscan  0.05 0.3 50 -20000
#D Wed Sep 22 15:49:32 2004
#M 20000  (Monitor)
#G0 0 0 0 0 0 1 0 0 0 0 0 0
#G1 6.28318 6.28318 6.28318 90 90 90 1 1 1 90 90 90 2 0 0 2 1 0 24 12 0 0 0 0 24 3.23 100 0 0 0 1.23984 1.45863
#G2 0
#Q 0.00499733 0 0
#P0 0.0565 0.02825 0 0 0 -23 0.98094737 0.12095238
#P1 7.997206 -29.999365 23.799848 0 60.999492 10.94175 252.94576 10.94175
#P2 -67.000254 -18.001016 37.5 3.479807 2.6301753 2.8956058 -0.81978664 -43.999873
#P3 2.000254 6.7995936 11.000127 35.819787 0.5 0.5 0.5 0.5
#P4 -11.1895 18.93736 
#N 7
#L Q  Epoch  Monitor  Ion 3  Temperature  Seconds  Detector
0.05 433 20001 113927 80.008 1.126 9213
0.055 435 20003 114220 80.003 1.129 6702
0.06 437 20004 111451 80.003 1.102 4590
0.065 439 20001 113793 80.003 1.125 3624
0.07 440 20001 113244 80.006 1.12 2713
0.075 442 20003 112881 80.004 1.116 2131
0.08 444 20001 114324 80.004 1.13 1652
0.085 446 20001 112149 80.003 1.109 1359
0.09 447 20001 114941 80.004 1.137 1115
0.095 449 20001 114243 80.001 1.13 904
0.1 451 20001 112971 80.004 1.117 804
0.105 453 20003 113080 80.007 1.118 679
0.11 454 20004 115032 80.003 1.137 585
0.115 456 20001 114370 80.004 1.131 456
0.12 458 20001 113302 80.006 1.12 457
0.125 460 20005 114221 80.004 1.13 418
0.13 461 20002 113227 80.004 1.12 339
0.135 463 20002 113536 80.004 1.123 314
0.14 465 20005 114670 80.005 1.134 303
0.145 467 20001 114086 80.004 1.128 256
0.15 469 20003 112948 80.004 1.117 225
0.155 470 20001 112764 80.004 1.115 220
0.16 472 20001 114041 80.008 1.128 207
0.165 474 20001 112299 80.006 1.111 216
0.17 476 20002 113895 80.006 1.126 200
0.175 477 20001 113038 80.007 1.118 200
0.18 479 20003 111246 80.006 1.1 167
0.185 481 20002 114197 80.004 1.129 190
0.19 483 20003 113093 80.006 1.119 220
0.195 484 20002 114834 80.006 1.136 195
0.2 486 20001 114030 80.005 1.128 183
0.205 488 20002 113279 80.005 1.12 157
0.21 490 20003 113342 80.007 1.121 170
0.215 491 20003 114487 80.005 1.132 161
0.22 493 20001 112933 80.006 1.117 170
0.225 495 20005 114497 80.006 1.132 178
0.23 497 20002 113610 80.006 1.124 175
0.235 498 20002 113491 80.005 1.123 175
0.24 500 20002 112666 80.006 1.114 180
0.245 502 20002 113458 80.004 1.122 155
0.25 504 20002 112627 80.004 1.114 173
0.255 505 20002 114584 80.004 1.134 155
0.26 507 20001 113591 80.007 1.124 184
0.265 509 20002 114479 80.007 1.132 160
0.27 511 20003 112665 80.005 1.114 159
0.275 512 20002 112973 80.006 1.118 178
0.28 514 20002 114154 80.007 1.129 164
0.285 516 20004 113549 80.006 1.123 153
0.29 518 20001 113214 80.005 1.12 173
0.295 519 20003 113630 80.006 1.124 168
0.3 521 20004 114327 80.006 1.131 177
#C Wed Sep 22 16:13:00 2004.  do /u/clegg/macros/batch.mac.

#S 4  ascan  tabv -1.01905 2.98095  20 1
#D Wed Sep 22 16:13:00 2004
#T 1  (Seconds)
#G0 0 0 0 0 0 1 0 0 0 0 0 0
#G1 6.28318 6.28318 6.28318 90 90 90 1 1 1 90 90 90 2 0 0 2 1 0 24 12 0 0 0 0 24 3.23 100 0 0 0 1.23984 1.45863
#G2 0
#Q 0.299995 0 0
#P0 3.39225 1.696125 0 0 5.5 -23 0.98094737 0.12095238
#P1 7.997206 -29.999365 23.799848 0 60.999492 10.94175 252.94576 10.94175
#P2 -67.000254 -18.001016 37.5 3.479807 2.6301753 2.8956058 -0.81978664 -43.999873
#P3 2.000254 6.7995936 11.000127 35.819787 0.5 0.5 0.5 0.5
#P4 -11.1895 18.93736 
#N 10
#L Tab Vert  H  K  L  Epoch  Seconds  Ion 3  Temperature  Detector  Monitor
-1.0190526 0.299995 0 0 1863 1 100296 80.006 0 537
-0.81905263 0.299995 0 0 1866 1 100291 70.001 0 637
-0.61905263 0.299995 0 0 1869 1 100281 70.002 0 686
-0.41905263 0.299995 0 0 1872 1 100236 70 0 796
-0.21905263 0.299995 0 0 1876 1 100226 70.004 0 1038
-0.019052632 0.299995 0 0 1879 1 100193 70.002 0 1502
0.18094737 0.299995 0 0 1882 1 100151 70.001 0 2822
0.38094737 0.299995 0 0 1886 1 100109 70.003 0 6888
0.58094737 0.299995 0 0 1889 1 100042 70.005 0 12460
0.78094737 0.299995 0 0 1892 1 99987 70.003 0 16333
0.98094737 0.299995 0 0 1895 1 99924 70.002 0 17638
1.1809474 0.299995 0 0 1899 1 99865 70.004 0 16590
1.3809474 0.299995 0 0 1902 1 99807 70.005 0 13112
1.5809474 0.299995 0 0 1905 1 99732 70.002 0 7486
1.7809474 0.299995 0 0 1908 1 99649 70.003 0 3484
1.9809474 0.299995 0 0 1912 1 99565 70.004 0 2060
2.1809474 0.299995 0 0 1915 1 99474 70.004 0 1411
2.3809474 0.299995 0 0 1918 1 99383 70.003 0 1054
2.5809474 0.299995 0 0 1922 1 99279 70.004 0 726
2.7809474 0.299995 0 0 1925 1 99185 70.005 0 517
2.9809474 0.299995 0 0 1928 1 99252 70.002 0 409

#S 5  qscan  -0.005 0.005 80 -20000
#D Wed Sep 22 16:14:56 2004
#M 20000  (Monitor)
#G0 0 0 0 0 0 1 0 0 0 0 0 0
#G1 6.28318 6.28318 6.28318 90 90 90 1 1 1 90 90 90 2 0 0 2 1 0 24 12 0 0 0 0 24 3.23 100 0 0 0 1.23984 1.45863
#G2 0
#Q 0.299995 0 0
#P0 3.39225 1.696125 0 0 5 -23 0.99189474 0.12095238
#P1 7.997206 -29.999365 23.799848 0 60.999492 10.94175 252.94576 10.94175
#P2 -67.000254 -18.001016 37.5 3.479807 2.6301753 2.8956058 -0.81978664 -43.999873
#P3 2.000254 6.7995936 11.000127 35.819787 0.5 0.5 0.5 0.5
#P4 -11.1895 18.93736 
#N 7
#L Q  Epoch  Monitor  Ion 3  Temperature  Seconds  Detector
-0.005 1964 20002 115204 70.002 1.153 104
-0.004875 1965 20003 115167 70.002 1.153 110
-0.00475 1966 20002 114098 70.002 1.142 105
-0.004625 1968 20002 115063 70.004 1.152 110
-0.0045 1969 20002 114600 70.001 1.147 106
-0.004375 1970 20001 114541 70 1.147 148
-0.00425 1972 20002 114445 70.003 1.146 121
-0.004125 1973 20002 114722 70.002 1.149 129
-0.004 1975 20002 113284 70.004 1.134 140
-0.003875 1976 20003 114456 70 1.146 163
-0.00375 1977 20002 114141 70.001 1.143 153
-0.003625 1979 20001 113956 70.003 1.141 208
-0.0035 1980 20001 113864 70.002 1.14 192
-0.003375 1981 20001 114131 70.004 1.143 216
-0.00325 1983 20003 114482 70.002 1.146 209
-0.003125 1984 20001 115093 70.002 1.153 221
-0.003 1986 20006 114637 70.001 1.148 261
-0.002875 1987 20002 115190 70.002 1.154 284
-0.00275 1988 20001 114960 70.002 1.151 298
-0.002625 1990 20001 114707 70.003 1.15 391
-0.0025 1991 20002 114162 70.004 1.143 374
-0.002375 1992 20002 115090 70 1.153 450
-0.00225 1994 20001 114237 70.001 1.144 444
-0.002125 1995 20004 114710 70 1.149 553
-0.002 1997 20003 113685 70.001 1.139 667
-0.001875 1998 20002 113383 70.001 1.136 724
-0.00175 1999 20002 113926 70 1.141 865
-0.001625 2001 20001 114741 70.002 1.149 1078
-0.0015 2002 20002 115039 70.001 1.152 1403
-0.001375 2003 20003 115125 70.002 1.153 2074
-0.00125 2005 20003 115524 70.001 1.157 3168
-0.001125 2006 20002 115343 70.001 1.155 5188
-0.001 2008 20002 114980 70.001 1.152 11937
-0.000875 2009 20002 114610 70.002 1.148 26772
-0.00075 2010 20001 115127 70 1.153 48693
-0.000625 2012 20005 115105 70.002 1.153 69224
-0.0005 2013 20002 114184 70.002 1.144 79708
-0.000375 2015 20001 114087 70.002 1.143 84741
-0.00025 2016 20002 114601 70.003 1.148 86794
-0.000125 2017 20001 113090 70.002 1.133 86096
0 2019 20003 115005 70.002 1.152 86461
0.000125 2020 20004 115165 70 1.154 83573
0.00025 2021 20001 116325 70.002 1.165 78756
0.000375 2023 20001 112592 70.002 1.128 69645
0.0005 2024 20003 115482 70.001 1.157 62718
0.000625 2026 20003 115275 70 1.155 53820
0.00075 2027 20002 114786 70.001 1.15 46843
0.000875 2028 20002 114278 70.001 1.145 40656
0.001 2030 20001 114485 70 1.147 35681
0.001125 2031 20001 114489 70.001 1.147 30778
0.00125 2033 20005 114617 70.001 1.148 26723
0.001375 2034 20003 115933 70.002 1.162 23704
0.0015 2035 20002 114349 70.002 1.146 19553
0.001625 2037 20001 113571 70 1.138 16267
0.00175 2038 20003 117093 70.001 1.173 14135
0.001875 2039 20003 115129 70 1.154 11429
0.002 2041 20002 113774 70.001 1.14 9783
0.002125 2042 20004 114745 70.003 1.15 8334
0.00225 2044 20005 115976 70.003 1.162 7462
0.002375 2045 20001 115740 70 1.16 6339
0.0025 2046 20002 115271 70.001 1.155 5345
0.002625 2048 20001 113965 69.999 1.142 4351
0.00275 2049 20001 113984 70.001 1.143 3217
0.002875 2050 20001 114880 70.004 1.151 2420
0.003 2052 20003 113143 70 1.134 1498
0.003125 2053 20002 114232 70.003 1.145 927
0.00325 2055 20001 114534 70.002 1.148 497
0.003375 2056 20005 114701 70.002 1.15 363
0.0035 2057 20002 112266 70.002 1.125 234
0.003625 2059 20003 114480 70.002 1.147 173
0.00375 2060 20001 113585 70 1.139 168
0.003875 2062 20002 113746 70.001 1.14 130
0.004 2063 20001 114040 70.002 1.143 107
0.004125 2064 20004 115288 70.002 1.156 101
0.00425 2066 20001 114147 70.003 1.144 87
0.004375 2067 20004 114439 70.002 1.147 84
0.0045 2068 20001 114362 70.001 1.146 69
0.004625 2070 20001 114187 70.004 1.145 78
0.00475 2071 20002 114443 70.002 1.147 61
0.004875 2073 20001 112948 70 1.132 52
0.005 2074 20002 115023 70.004 1.153 48

#S 6  qscan  0.05 0.35 60 -40000
#D Wed Sep 22 16:16:59 2004
#M 40000  (Monitor)
#G0 0 0 0 0 0 1 0 0 0 0 0 0
#G1 6.28318 6.28318 6.28318 90 90 90 1 1 1 90 90 90 2 0 0 2 1 0 24 12 0 0 0 0 24 3.23 100 0 0 0 1.23984 1.45863
#G2 0
#Q 0.00499733 0 0
#P0 0.0565 0.02825 0 0 0 -23 0.99189474 0.12095238
#P1 7.997206 -29.999365 23.799848 0 60.999492 10.94175 252.94576 10.94175
#P2 -67.000254 -18.001016 37.5 3.479807 2.6301753 2.8956058 -0.81978664 -43.999873
#P3 2.000254 6.7995936 11.000127 35.819787 0.5 0.5 0.5 0.5
#P4 -11.1895 18.93736 
#N 7
#L Q  Epoch  Monitor  Ion 3  Temperature  Seconds  Detector
0.05 2081 40004 226085 70 2.267 17953
0.055 2084 40003 225941 70.001 2.266 12999
0.06 2087 40003 227743 70.004 2.284 9822
0.065 2090 40002 229084 70.002 2.298 7224
0.07 2093 40003 229052 70.001 2.297 5514
0.075 2096 40003 226591 70.003 2.273 4161
0.08 2099 40001 226963 70.001 2.276 3414
0.085 2102 40005 227573 70.002 2.283 2704
0.09 2105 40003 228523 70.003 2.292 2237
0.095 2107 40004 226306 70.004 2.272 1806
0.1 2110 40004 226168 70.005 2.269 1527
0.105 2113 40003 226187 70.002 2.269 1323
0.11 2116 40004 229028 70 2.298 1077
0.115 2119 40002 228880 70.002 2.296 990
0.12 2122 40003 227435 70.003 2.282 856
0.125 2125 40005 227581 70.003 2.283 772
0.13 2128 40002 226168 70.003 2.269 684
0.135 2131 40002 225220 70.003 2.26 632
0.14 2134 40001 226182 70.006 2.27 591
0.145 2136 40004 227074 70.004 2.278 539
0.15 2139 40002 225774 70.003 2.265 501
0.155 2142 40005 228674 70.003 2.295 480
0.16 2145 40004 227605 70.005 2.284 447
0.165 2148 40002 227615 70.003 2.284 399
0.17 2151 40003 229500 70.005 2.303 455
0.175 2154 40002 227443 70.003 2.283 350
0.18 2157 40002 226320 70.005 2.271 389
0.185 2160 40003 227054 70.004 2.279 344
0.19 2163 40002 226105 70.004 2.269 312
0.195 2166 40005 226974 70.006 2.278 337
0.2 2169 40001 227913 70.005 2.287 381
0.205 2171 40001 226128 70.004 2.27 321
0.21 2174 40002 226710 70.003 2.276 369
0.215 2177 40004 227791 70.004 2.286 371
0.22 2180 40001 228194 70.005 2.291 334
0.225 2183 40004 227463 70.002 2.283 380
0.23 2186 40002 228439 70.005 2.293 330
0.235 2189 40003 225372 70.004 2.263 341
0.24 2192 40002 225253 70.002 2.262 345
0.245 2195 40001 226306 70.002 2.272 365
0.25 2198 40007 225704 70.007 2.266 339
0.255 2200 40007 226830 70.003 2.277 332
0.26 2203 40001 225138 70.005 2.261 355
0.265 2206 40001 226853 70.005 2.278 352
0.27 2209 40003 227495 70.005 2.284 373
0.275 2212 40003 226050 70.004 2.27 346
0.28 2215 40002 227226 70.005 2.282 321
0.285 2218 40001 226069 70.005 2.27 344
0.29 2221 40004 226639 70.005 2.276 341
0.295 2224 39997 227490 70.005 2.284 372
0.3 2227 40003 226754 70.004 2.277 345
0.305 2230 40003 225932 70.005 2.269 346
0.31 2232 40003 226634 70.005 2.276 322
0.315 2235 40002 226761 70.006 2.277 308
0.32 2238 40008 226897 70.006 2.279 330
0.325 2241 40003 226911 70.005 2.279 292
0.33 2244 40005 225481 70.005 2.265 308
0.335 2247 40002 224642 70.003 2.256 330
0.34 2250 40001 225074 70.005 2.261 297
0.345 2253 40001 226561 70.005 2.276 308
0.35 2256 40003 228244 70.005 2.293 306
#C Wed Sep 22 16:31:35 2004.  do /u/clegg/macros/lakeshore331.mac.
#C Wed Sep 22 16:34:37 2004.  do /u/clegg/macros/lakeshore331.mac.
#C Wed Sep 22 16:35:33 2004.  do /u/clegg/macros/lakeshore331.mac.
#C Wed Sep 22 16:36:03 2004.  do /u/clegg/macros/lakeshore331.mac.
#C Wed Sep 22 16:38:12 2004.  do /u/clegg/macros/loop.mac.
#C Wed Sep 22 16:42:07 2004.  do /u/clegg/macros/batch.mac.

#S 7  ascan  tabv -1.00811 2.99189  20 1
#D Wed Sep 22 16:42:07 2004
#T 1  (Seconds)
#G0 0 0 0 0 0 1 0 0 0 0 0 0
#G1 6.28318 6.28318 6.28318 90 90 90 1 1 1 90 90 90 2 0 0 2 1 0 24 12 0 0 0 0 24 3.23 100 0 0 0 1.23984 1.45863
#G2 0
#Q 0 0 0
#P0 0 0 0 0 5.5 -23 0.99189474 0.12095238
#P1 7.997206 -29.999365 23.799848 0 60.999492 10.94175 252.94576 10.94175
#P2 -67.000254 -18.001016 37.5 3.479807 2.6301753 2.8956058 -0.81978664 -43.999873
#P3 2.000254 6.7995936 11.000127 35.819787 0.5 0.5 0.5 0.5
#P4 -11.1895 18.93736 
#N 10
#L Tab Vert  H  K  L  Epoch  Seconds  Ion 3  Temperature  Detector  Monitor
-1.0081053 0 0 0 3610 1 98816 60.008 0 525
-0.80810526 0 0 0 3613 1 98801 60.004 0 625
-0.60810526 0 0 0 3617 1 98790 60.002 0 659
-0.40810526 0 0 0 3620 1 98769 60.003 0 800
-0.20810526 0 0 0 3623 1 98742 60 0 987
-0.0081052632 0 0 0 3626 1 98705 60.003 0 1529
0.19189474 0 0 0 3630 1 98661 60.001 0 2800
0.39189474 0 0 0 3633 1 98614 60.003 0 6867
0.59189474 0 0 0 3636 1 98554 60.001 0 12574
0.79189474 0 0 0 3640 1 98505 60.002 0 16371
0.99189474 0 0 0 3643 1 98439 60 0 17448
1.1918947 0 0 0 3646 1 98386 60.001 0 16599
1.3918947 0 0 0 3649 1 98318 60.003 0 12960
1.5918947 0 0 0 3653 1 98254 60 0 7080
1.7918947 0 0 0 3656 1 98172 60.002 0 3415
1.9918947 0 0 0 3659 1 98100 60.002 0 2054
2.1918947 0 0 0 3662 1 98015 60.001 0 1376
2.3918947 0 0 0 3666 1 97926 60.003 0 1013
2.5918947 0 0 0 3669 1 97823 60 0 753
2.7918947 0 0 0 3672 1 97741 60.003 0 537
2.9918947 0 0 0 3676 1 97813 60 0 458

#S 8  qscan  -0.005 0.005 80 -20000
#D Wed Sep 22 16:44:03 2004
#M 20000  (Monitor)
#G0 0 0 0 0 0 1 0 0 0 0 0 0
#G1 6.28318 6.28318 6.28318 90 90 90 1 1 1 90 90 90 2 0 0 2 1 0 24 12 0 0 0 0 24 3.23 100 0 0 0 1.23984 1.45863
#G2 0
#Q 0 0 0
#P0 0 0 0 0 5 -23 0.99642105 0.12095238
#P1 7.997206 -29.999365 23.799848 0 60.999492 10.94175 252.94576 10.94175
#P2 -67.000254 -18.001016 37.5 3.479807 2.6301753 2.8956058 -0.81978664 -43.999873
#P3 2.000254 6.7995936 11.000127 35.819787 0.5 0.5 0.5 0.5
#P4 -11.1895 18.93736 
#N 7
#L Q  Epoch  Monitor  Ion 3  Temperature  Seconds  Detector
-0.005 3704 20001 113969 60.003 1.158 86
-0.004875 3705 20002 113097 60.003 1.149 123
-0.00475 3707 20001 114215 60.001 1.16 117
-0.004625 3708 20003 115449 60.004 1.173 114
-0.0045 3710 20001 113805 60.003 1.156 124
-0.004375 3711 20006 114125 60.002 1.159 119
-0.00425 3712 20003 113752 60.003 1.156 139
-0.004125 3714 20001 114657 60.002 1.165 154
-0.004 3715 20002 113798 60.002 1.156 130
-0.003875 3717 20003 115250 60.002 1.171 168
-0.00375 3718 20002 114945 60.003 1.168 154
-0.003625 3719 20003 114022 60.003 1.158 186
-0.0035 3721 20001 114823 60.002 1.167 195
-0.003375 3722 20001 113739 60.002 1.155 211
-0.00325 3724 20003 115090 60.001 1.169 240
-0.003125 3725 20002 114536 60.004 1.164 221
-0.003 3726 20004 114523 60.002 1.164 266
-0.002875 3728 20001 114547 60.001 1.164 278
-0.00275 3729 20002 113947 60.002 1.158 297
-0.002625 3731 20001 113310 60 1.151 377
-0.0025 3732 20001 116843 60.002 1.187 371
-0.002375 3733 20002 115027 60.003 1.169 453
-0.00225 3735 20002 115651 60.004 1.175 553
-0.002125 3736 20001 113585 60.003 1.154 555
-0.002 3738 20001 114824 60.001 1.167 582
-0.001875 3739 20001 113545 60.002 1.154 760
-0.00175 3740 20002 113635 60.001 1.155 885
-0.001625 3742 20003 114500 60.001 1.164 1137
-0.0015 3743 20001 115643 60 1.175 1472
-0.001375 3745 20001 113265 60.004 1.151 2088
-0.00125 3746 20001 113933 60.003 1.158 3200
-0.001125 3747 20001 113530 60.001 1.154 5619
-0.001 3749 20001 113590 60.005 1.154 12711
-0.000875 3750 20001 114261 60.003 1.161 28446
-0.00075 3751 20001 114765 60.002 1.166 51158
-0.000625 3753 20001 116286 60.004 1.182 70703
-0.0005 3754 20002 114770 60.002 1.166 80601
-0.000375 3756 20001 115107 60.003 1.17 84767
-0.00025 3757 20002 115980 60.003 1.179 87466
-0.000125 3759 20001 115325 60.002 1.172 86767
0 3760 20001 115112 60.004 1.17 85469
0.000125 3761 20001 113778 60.003 1.156 81662
0.00025 3763 20002 114093 60.004 1.159 76246
0.000375 3764 20003 114601 60.001 1.165 69495
0.0005 3766 20002 113949 60.003 1.158 61332
0.000625 3767 20003 114453 60.002 1.163 53019
0.00075 3768 20003 114461 60.004 1.163 46210
0.000875 3770 20001 114751 60.004 1.166 40319
0.001 3771 20003 115217 60.004 1.171 35600
0.001125 3772 20002 113413 60.002 1.153 30238
0.00125 3774 20002 114593 60.003 1.165 26475
0.001375 3775 20001 115195 60.001 1.171 23160
0.0015 3777 20001 115234 60.003 1.171 19372
0.001625 3778 20003 114861 60.002 1.167 15796
0.00175 3780 20001 116014 60.002 1.179 13533
0.001875 3781 20003 114749 60.003 1.166 11335
0.002 3782 20001 114473 60.003 1.164 9762
0.002125 3784 20001 114748 60.003 1.166 8405
0.00225 3785 20001 114578 60.003 1.165 7138
0.002375 3787 20005 114671 60.001 1.166 6159
0.0025 3788 20002 114615 60.002 1.165 5178
0.002625 3789 20003 114912 60.004 1.168 4158
0.00275 3791 20001 114063 60.002 1.159 3168
0.002875 3792 20001 115044 60.003 1.169 2390
0.003 3793 20001 113720 60.002 1.156 1523
0.003125 3795 20005 114178 60.003 1.161 878
0.00325 3796 20003 114120 60.003 1.16 559
0.003375 3798 20003 113995 60.003 1.159 313
0.0035 3799 20002 113125 60.003 1.15 217
0.003625 3800 20001 115677 60.003 1.176 158
0.00375 3802 20005 113665 60.001 1.156 152
0.003875 3803 20001 115912 60.004 1.178 152
0.004 3805 20002 113322 60.003 1.152 109
0.004125 3806 20004 114374 60.004 1.163 101
0.00425 3807 20002 115611 60.004 1.175 83
0.004375 3809 20002 115347 60.004 1.173 93
0.0045 3810 20004 116543 60.003 1.185 91
0.004625 3812 20003 113428 60.003 1.153 65
0.00475 3813 20001 114537 60.002 1.165 63
0.004875 3814 20001 114802 60.003 1.167 69
0.005 3816 20001 114832 60.004 1.168 42

#S 9  qscan  0.05 0.35 60 -40000
#D Wed Sep 22 16:46:01 2004
#M 40000  (Monitor)
#G0 0 0 0 0 0 1 0 0 0 0 0 0
#G1 6.28318 6.28318 6.28318 90 90 90 1 1 1 90 90 90 2 0 0 2 1 0 24 12 0 0 0 0 24 3.23 100 0 0 0 1.23984 1.45863
#G2 0
#Q 0.00499733 0 0
#P0 0.0565 0.02825 0 0 0 -23 0.99642105 0.12095238
#P1 7.997206 -29.999365 23.799848 0 60.999492 10.94175 252.94576 10.94175
#P2 -67.000254 -18.001016 37.5 3.479807 2.6301753 2.8956058 -0.81978664 -43.999873
#P3 2.000254 6.7995936 11.000127 35.819787 0.5 0.5 0.5 0.5
#P4 -11.1895 18.93736 
#N 7
#L Q  Epoch  Monitor  Ion 3  Temperature  Seconds  Detector
0.05 3823 40001 227122 60.003 2.31 18175
0.055 3826 40002 225675 60.004 2.295 12859
0.06 3829 40006 227095 60.003 2.309 9416
0.065 3832 40003 228399 60.002 2.323 7097
0.07 3835 40004 228632 60.001 2.325 5437
0.075 3838 40002 226040 60.003 2.299 4115
0.08 3841 40005 227652 60.003 2.316 3365
0.085 3844 40003 227698 60.001 2.316 2628
0.09 3847 40002 228290 60.004 2.322 2205
0.095 3850 40002 226972 60.004 2.309 1875
0.1 3853 40003 228524 60.003 2.325 1567
0.105 3856 40007 227540 60.002 2.315 1322
0.11 3859 40002 228964 60 2.329 1194
0.115 3862 40004 227262 60.004 2.312 983
0.12 3864 40002 225356 60.002 2.293 891
0.125 3867 40005 225632 60.002 2.295 763
0.13 3870 40004 225137 60.001 2.29 669
0.135 3873 40008 225472 60.003 2.294 629
0.14 3876 40003 227752 60.004 2.317 579
0.145 3879 40007 228020 60.003 2.32 551
0.15 3882 40002 226656 60.002 2.306 499
0.155 3885 40002 226900 60.002 2.309 459
0.16 3888 40001 224986 60.003 2.289 429
0.165 3891 40001 227612 60.002 2.316 428
0.17 3894 40003 227282 60.002 2.313 437
0.175 3897 40004 227044 60.003 2.31 426
0.18 3900 40002 227670 60.002 2.317 374
0.185 3903 40003 227547 60.002 2.316 394
0.19 3906 40002 228087 60.002 2.321 358
0.195 3908 40003 225603 60.001 2.296 410
0.2 3911 40004 227947 60.003 2.32 372
0.205 3914 40001 226811 60.002 2.308 345
0.21 3917 40007 226546 60.003 2.306 354
0.215 3920 40002 227623 60.002 2.317 366
0.22 3923 40003 227629 60.004 2.317 384
0.225 3926 40004 227113 60.003 2.312 361
0.23 3929 40003 227113 60.002 2.312 372
0.235 3932 40001 226688 60.002 2.307 388
0.24 3935 40002 226106 60.004 2.302 358
0.245 3938 40002 227165 60.004 2.312 380
0.25 3941 40002 226888 60.001 2.31 392
0.255 3944 40004 227484 60.004 2.316 355
0.26 3947 40001 228846 60.002 2.33 379
0.265 3950 40002 226552 60.004 2.306 368
0.27 3953 40004 227514 60.003 2.316 370
0.275 3956 40006 227109 60.001 2.312 349
0.28 3959 40004 227089 60.003 2.312 356
0.285 3961 40003 227322 60.002 2.314 340
0.29 3964 40002 227194 60.002 2.313 352
0.295 3967 40002 225457 60.002 2.295 351
0.3 3970 40004 226432 60.003 2.305 359
0.305 3973 40005 227864 60.004 2.32 356
0.31 3976 40001 226623 60.002 2.307 310
0.315 3979 40001 225028 60.005 2.291 309
0.32 3982 40003 226959 60.004 2.311 303
0.325 3985 40004 228246 60.002 2.324 299
0.33 3988 40004 229166 60.004 2.334 328
0.335 3991 40002 225539 60.002 2.297 286
0.34 3994 40002 228709 60.005 2.329 307
0.345 3997 40002 225915 60.003 2.301 307
0.35 4000 40002 225201 60.002 2.294 298
#C Wed Sep 22 16:53:25 2004.  do /u/clegg/macros/loop.mac.
#C Wed Sep 22 17:06:53 2004.  do /u/clegg/macros/batch.mac.

#S 10  ascan  tabv -1.00358 2.99642  20 1
#D Wed Sep 22 17:06:53 2004
#T 1  (Seconds)
#G0 0 0 0 0 0 1 0 0 0 0 0 0
#G1 6.28318 6.28318 6.28318 90 90 90 1 1 1 90 90 90 2 0 0 2 1 0 24 12 0 0 0 0 24 3.23 100 0 0 0 1.23984 1.45863
#G2 0
#Q 0.349998 -5.90873e-08 -3.77189e-07
#P0 3.957875 1.979 0 0 5.5 -23 0.99642105 0.12095238
#P1 7.997206 -29.999365 23.799848 0 60.999492 10.94175 252.94576 10.94175
#P2 -67.000254 -18.001016 37.5 3.479807 2.6301753 2.8956058 -0.81978664 -43.999873
#P3 2.000254 6.7995936 11.000127 35.819787 0.5 0.5 0.5 0.5
#P4 -11.1895 18.93736 
#N 10
#L Tab Vert  H  K  L  Epoch  Seconds  Ion 3  Temperature  Detector  Monitor
-1.0035789 0.349998 -5.90873e-08 -3.77189e-07 5096 1 97696 50.023 0 574
-0.80357895 0.349998 -5.90873e-08 -3.77189e-07 5099 1 97679 50.025 0 578
-0.60357895 0.349998 -5.90873e-08 -3.77189e-07 5102 1 97663 50.026 0 683
-0.40357895 0.349998 -5.90873e-08 -3.77189e-07 5105 1 97634 50.025 0 761
-0.20357895 0.349998 -5.90873e-08 -3.77189e-07 5108 1 97606 50.024 0 1067
-0.0035789474 0.349998 -5.90873e-08 -3.77189e-07 5111 1 97568 50.024 0 1517
0.19642105 0.349998 -5.90873e-08 -3.77189e-07 5115 1 97535 50.025 0 2916
0.39642105 0.349998 -5.90873e-08 -3.77189e-07 5118 1 97487 50.022 0 6836
0.59642105 0.349998 -5.90873e-08 -3.77189e-07 5121 1 97433 50.022 0 12590
0.79642105 0.349998 -5.90873e-08 -3.77189e-07 5124 1 97374 50.022 0 16108
0.99642105 0.349998 -5.90873e-08 -3.77189e-07 5127 1 97314 50.022 0 17077
1.1964211 0.349998 -5.90873e-08 -3.77189e-07 5130 1 97252 50.021 0 16583
1.3964211 0.349998 -5.90873e-08 -3.77189e-07 5134 1 97188 50.023 0 12687
1.5964211 0.349998 -5.90873e-08 -3.77189e-07 5137 1 97126 50.019 0 6931
1.7964211 0.349998 -5.90873e-08 -3.77189e-07 5140 1 97048 50.019 0 3304
1.9964211 0.349998 -5.90873e-08 -3.77189e-07 5143 1 96972 50.018 0 2034
2.1964211 0.349998 -5.90873e-08 -3.77189e-07 5146 1 96890 50.016 0 1373
2.3964211 0.349998 -5.90873e-08 -3.77189e-07 5149 1 96788 50.019 0 1009
2.5964211 0.349998 -5.90873e-08 -3.77189e-07 5153 1 96684 50.017 0 742
2.7964211 0.349998 -5.90873e-08 -3.77189e-07 5156 1 96611 50.016 0 508
2.9964211 0.349998 -5.90873e-08 -3.77189e-07 5159 1 96688 50.016 0 411

#S 11  qscan  -0.005 0.005 80 -20000
#D Wed Sep 22 17:08:46 2004
#M 20000  (Monitor)
#G0 0 0 0 0 0 1 0 0 0 0 0 0
#G1 6.28318 6.28318 6.28318 90 90 90 1 1 1 90 90 90 2 0 0 2 1 0 24 12 0 0 0 0 24 3.23 100 0 0 0 1.23984 1.45863
#G2 0
#Q 0.349998 -5.90873e-08 -3.77189e-07
#P0 3.957875 1.979 0 0 5 -23 0.99810526 0.12095238
#P1 7.997206 -29.999365 23.799848 0 60.999492 10.94175 252.94576 10.94175
#P2 -67.000254 -18.001016 37.5 3.479807 2.6301753 2.8956058 -0.81978664 -43.999873
#P3 2.000254 6.7995936 11.000127 35.819787 0.5 0.5 0.5 0.5
#P4 -11.1895 18.93736 
#N 7
#L Q  Epoch  Monitor  Ion 3  Temperature  Seconds  Detector
-0.005 5195 20002 115114 50.012 1.183 103
-0.004875 5197 20002 114741 50.012 1.179 102
-0.00475 5198 20001 114692 50.012 1.179 110
-0.004625 5199 20001 114313 50.01 1.175 96
-0.0045 5200 20001 113548 50.01 1.167 122
-0.004375 5202 20001 114700 50.01 1.179 127
-0.00425 5203 20005 115533 50.011 1.187 137
-0.004125 5204 20002 113632 50.012 1.168 159
-0.004 5206 20003 114665 50.01 1.178 155
-0.003875 5207 20001 114717 50.009 1.179 178
-0.00375 5208 20004 114174 50.01 1.173 168
-0.003625 5210 20004 114325 50.01 1.175 171
-0.0035 5211 20001 114550 50.009 1.177 206
-0.003375 5212 20001 116638 50.009 1.199 203
-0.00325 5214 20002 114667 50.009 1.178 233
-0.003125 5215 20001 115007 50.008 1.182 271
-0.003 5216 20003 113461 50.008 1.166 258
-0.002875 5218 20002 113920 50.01 1.171 295
-0.00275 5219 20001 114265 50.008 1.174 334
-0.002625 5220 20001 115319 50.007 1.185 334
-0.0025 5221 20002 115002 50.007 1.182 386
-0.002375 5223 20001 114731 50.006 1.18 461
-0.00225 5224 20001 115152 50.008 1.184 535
-0.002125 5225 20003 115144 50.007 1.184 597
-0.002 5227 20006 114192 50.006 1.174 644
-0.001875 5228 20002 115016 50.007 1.182 771
-0.00175 5229 20002 116475 50.006 1.197 911
-0.001625 5231 20002 114387 50.008 1.176 1125
-0.0015 5232 20002 114784 50.008 1.18 1374
-0.001375 5233 20002 115140 50.008 1.184 2004
-0.00125 5235 20001 115424 50.008 1.186 3294
-0.001125 5236 20001 114640 50.004 1.178 5607
-0.001 5237 20002 115398 50.005 1.186 12513
-0.000875 5239 20002 113137 50.004 1.163 28341
-0.00075 5240 20002 113907 50.006 1.171 50298
-0.000625 5241 20002 113815 50.006 1.17 69234
-0.0005 5242 20002 114364 50.005 1.176 79337
-0.000375 5244 20002 115383 50.005 1.186 84523
-0.00025 5245 20003 115014 50.006 1.182 85807
-0.000125 5246 20002 114924 50.004 1.181 85496
0 5248 20003 112681 50.004 1.158 83376
0.000125 5249 20001 115165 50.004 1.184 82584
0.00025 5250 20001 113457 50.004 1.166 75170
0.000375 5252 20002 113999 50.005 1.172 69302
0.0005 5253 20003 115228 50.006 1.185 62463
0.000625 5254 20001 114530 50.003 1.177 53117
0.00075 5256 20001 114407 50.004 1.176 46122
0.000875 5257 20001 113771 50.005 1.17 39920
0.001 5258 20003 114642 50.004 1.179 35663
0.001125 5259 20002 113547 50.004 1.167 30638
0.00125 5261 20003 114506 50.002 1.177 26519
0.001375 5262 20002 115030 50.003 1.183 23132
0.0015 5263 20002 114326 50.005 1.175 19269
0.001625 5265 20003 114320 50.004 1.175 16219
0.00175 5266 20001 113338 50.002 1.165 13363
0.001875 5267 20003 114199 50.001 1.174 11341
0.002 5269 20002 113825 50.001 1.17 9597
0.002125 5270 20003 112960 50.002 1.161 8496
0.00225 5271 20002 113362 50.001 1.166 7355
0.002375 5272 20002 113935 50.003 1.171 6065
0.0025 5274 20001 114433 50.002 1.176 5330
0.002625 5275 20002 114984 50.004 1.182 4402
0.00275 5276 20002 114739 50.001 1.18 3341
0.002875 5278 20001 114841 50.001 1.181 2434
0.003 5279 20001 113527 50.002 1.167 1656
0.003125 5280 20001 114465 50.001 1.177 885
0.00325 5282 20001 115108 50.002 1.184 528
0.003375 5283 20003 115957 50.001 1.192 373
0.0035 5284 20001 113403 49.999 1.166 242
0.003625 5286 20002 114883 50 1.181 192
0.00375 5287 20001 114721 50.001 1.18 172
0.003875 5288 20003 114459 50.001 1.177 142
0.004 5290 20002 114306 50.003 1.175 117
0.004125 5291 20005 113629 50.001 1.168 81
0.00425 5292 20001 114147 49.999 1.174 97
0.004375 5293 20003 114198 50.002 1.174 71
0.0045 5295 20004 115389 50.001 1.187 81
0.004625 5296 20001 113729 50.002 1.169 73
0.00475 5297 20002 114768 50.002 1.18 56
0.004875 5299 20001 115179 50.001 1.184 48
0.005 5300 20001 115245 49.999 1.185 54

#S 12  qscan  0.05 0.35 60 -40000
#D Wed Sep 22 17:10:45 2004
#M 40000  (Monitor)
#G0 0 0 0 0 0 1 0 0 0 0 0 0
#G1 6.28318 6.28318 6.28318 90 90 90 1 1 1 90 90 90 2 0 0 2 1 0 24 12 0 0 0 0 24 3.23 100 0 0 0 1.23984 1.45863
#G2 0
#Q 0.00499733 0 0
#P0 0.0565 0.02825 0 0 0 -23 0.99810526 0.12095238
#P1 7.997206 -29.999365 23.799848 0 60.999492 10.94175 252.94576 10.94175
#P2 -67.000254 -18.001016 37.5 3.479807 2.6301753 2.8956058 -0.81978664 -43.999873
#P3 2.000254 6.7995936 11.000127 35.819787 0.5 0.5 0.5 0.5
#P4 -11.1895 18.93736 
#N 7
#L Q  Epoch  Monitor  Ion 3  Temperature  Seconds  Detector
0.05 5307 40004 228047 50.001 2.346 17581
0.055 5310 40003 227419 50 2.339 12546
0.06 5313 40001 228918 49.998 2.355 9482
0.065 5316 40003 226851 50.001 2.334 7089
0.07 5319 40004 226422 50.001 2.329 5346
0.075 5322 40002 228327 50 2.349 4148
0.08 5325 40002 226719 50.001 2.332 3275
0.085 5327 40003 225789 50 2.323 2737
0.09 5330 40003 227372 50 2.339 2104
0.095 5333 40006 225784 49.999 2.323 1899
0.1 5336 40005 226804 50.001 2.333 1506
0.105 5339 40003 228269 50 2.349 1306
0.11 5342 40003 227017 50.002 2.337 1081
0.115 5345 40001 227774 49.998 2.344 997
0.12 5347 40004 228214 49.998 2.348 876
0.125 5350 40001 224998 50 2.315 810
0.13 5353 40004 227184 49.998 2.338 693
0.135 5356 40004 226739 49.999 2.333 634
0.14 5359 40002 227889 49.999 2.345 570
0.145 5362 40002 227443 49.998 2.34 519
0.15 5365 40004 227690 50.001 2.343 528
0.155 5368 40007 226561 49.999 2.331 502
0.16 5370 40008 226058 50 2.326 488
0.165 5373 40002 225266 50.001 2.318 426
0.17 5376 40001 224318 50 2.308 431
0.175 5379 40003 227167 50 2.337 405
0.18 5382 40003 228096 50.001 2.347 389
0.185 5385 40001 225035 49.998 2.316 439
0.19 5388 40006 227210 50 2.338 413
0.195 5390 40005 225670 49.999 2.322 410
0.2 5393 40001 226363 50 2.329 435
0.205 5396 40004 227169 50.001 2.338 395
0.21 5399 40001 228706 49.999 2.354 402
0.215 5402 40002 226091 50.003 2.327 422
0.22 5405 40003 228080 49.999 2.347 437
0.225 5408 40002 226353 50.001 2.33 418
0.23 5410 40006 224299 50 2.309 414
0.235 5413 40004 228149 50 2.348 408
0.24 5416 40004 228171 50.002 2.349 414
0.245 5419 40002 226689 50.003 2.333 465
0.25 5422 40004 228769 49.999 2.355 438
0.255 5425 40004 228614 50.002 2.353 489
0.26 5428 40002 226267 50.003 2.329 414
0.265 5431 40001 227459 50 2.341 414
0.27 5433 40003 226436 50.002 2.331 437
0.275 5436 40007 228289 50 2.35 389
0.28 5439 40007 228217 50.001 2.349 399
0.285 5442 40002 225434 49.999 2.321 406
0.29 5445 40007 226494 50.001 2.332 429
0.295 5448 40005 229294 49.999 2.361 401
0.3 5451 40003 226691 50 2.334 382
0.305 5454 40004 227078 50.002 2.338 380
0.31 5456 40002 226927 50.001 2.337 364
0.315 5459 40003 228205 50.002 2.351 363
0.32 5462 40001 227069 50 2.338 328
0.325 5465 40004 226628 50 2.334 307
0.33 5468 40002 225318 50.001 2.32 343
0.335 5471 40003 227446 50.001 2.342 325
0.34 5474 40004 226753 49.999 2.335 301
0.345 5477 40004 226772 50.002 2.336 307
0.35 5479 40003 226817 50.001 2.336 293

#S 13  qscan  0.17 0.27 50 -160000
#D Wed Sep 22 17:14:57 2004
#M 160000  (Monitor)
#G0 0 0 0 0 0 1 0 0 0 0 0 0
#G1 6.28318 6.28318 6.28318 90 90 90 1 1 1 90 90 90 2 0 0 2 1 0 24 12 0 0 0 0 24 3.23 100 0 0 0 1.23984 1.45863
#G2 0
#Q 0.349998 -5.90873e-08 -3.77189e-07
#P0 3.957875 1.979 0 0 0 -23 0.99810526 0.12095238
#P1 7.997206 -29.999365 23.799848 0 60.999492 10.94175 252.94576 10.94175
#P2 -67.000254 -18.001016 37.5 3.479807 2.6301753 2.8956058 -0.81978664 -43.999873
#P3 2.000254 6.7995936 11.000127 35.819787 0.5 0.5 0.5 0.5
#P4 -11.1895 18.93736 
#N 7
#L Q  Epoch  Monitor  Ion 3  Temperature  Seconds  Detector
0.17 5570 160010 905661 50.001 9.336 1744
0.172 5580 160007 907012 50.004 9.352 1733
0.174 5590 160008 909777 50.002 9.38 1694
0.176 5599 160009 907806 50.002 9.361 1733
0.178 5609 160007 914862 50.004 9.435 1635
0.18 5619 160008 909596 50.004 9.381 1656
0.182 5629 160007 907467 50.004 9.36 1564
0.184 5638 160007 907343 50.001 9.362 1684
0.186 5648 160009 910462 50.002 9.393 1626
0.188 5658 160008 909608 50.004 9.384 1664
0.19 5668 160009 911057 50.002 9.401 1720
0.192 5677 160006 910185 50.004 9.393 1684
0.194 5687 160009 909176 50.002 9.382 1654
0.196 5697 160014 904723 50.003 9.337 1641
0.198 5707 160015 911454 50.003 9.407 1691
0.2 5716 160007 910306 50.005 9.397 1657
0.202 5726 160012 907233 50.001 9.365 1647
0.204 5736 160011 906900 50.001 9.362 1628
0.206 5746 160011 911511 50.001 9.411 1702
0.208 5755 160011 909751 50.002 9.396 1727
0.21 5765 160008 908027 50.001 9.377 1705
0.212 5775 160008 911595 50.001 9.414 1695
0.214 5785 160004 906101 50.001 9.358 1714
0.216 5794 160007 908895 50.001 9.387 1790
0.218 5804 160007 904982 50.001 9.347 1738
0.22 5814 160003 910644 50.004 9.407 1664
0.222 5824 160006 910825 50.004 9.41 1823
0.224 5833 160009 907546 50.002 9.376 1784
0.226 5843 160008 908850 50.002 9.39 1782
0.228 5853 160010 907686 50.002 9.379 1849
0.23 5863 160011 907246 50.003 9.376 1744
0.232 5872 160010 906457 50.004 9.37 1794
0.234 5882 160010 905633 49.998 9.361 1707
0.236 5892 160009 909014 50 9.396 1783
0.238 5902 160011 909100 50.001 9.398 1784
0.24 5911 160010 907753 50.004 9.384 1831
0.242 5921 160007 910582 50.003 9.414 1838
0.244 5931 160011 907957 50 9.389 1754
0.246 5941 160008 906673 50 9.375 1789
0.248 5950 160006 910706 50.001 9.418 1750
0.25 5960 160008 907643 50 9.387 1740
0.252 5970 160011 905354 50 9.364 1721
0.254 5980 160007 907720 50.003 9.389 1691
0.256 5989 160007 908968 50 9.405 1693
0.258 5999 160014 909895 49.999 9.414 1723
0.26 6009 160014 909829 50.001 9.414 1718
0.262 6019 160012 912713 50.002 9.445 1725
0.264 6029 160013 908197 50.001 9.397 1746
0.266 6038 160014 907954 50 9.396 1765
0.268 6048 160008 910424 50.004 9.421 1651
0.27 6058 160008 905055 50.001 9.366 1771
#C Wed Sep 22 17:41:30 2004.  do /u/clegg/macros/batch.mac.

#S 14  ascan  tabv -1.00189 2.99811  20 1
#D Wed Sep 22 17:41:30 2004
#T 1  (Seconds)
#G0 0 0 0 0 0 1 0 0 0 0 0 0
#G1 6.28318 6.28318 6.28318 90 90 90 1 1 1 90 90 90 2 0 0 2 1 0 24 12 0 0 0 0 24 3.23 100 0 0 0 1.23984 1.45863
#G2 0
#Q 0.270001 0 0
#P0 3.053 1.5265 0 0 5.5 -23 0.99810526 0.12095238
#P1 7.997206 -29.999365 23.799848 0 60.999492 10.94175 252.94576 10.94175
#P2 -67.000254 -18.001016 37.5 3.479807 2.6301753 2.8956058 -0.81978664 -43.999873
#P3 2.000254 6.7995936 11.000127 35.819787 0.5 0.5 0.5 0.5
#P4 -11.1895 18.93736 
#N 10
#L Tab Vert  H  K  L  Epoch  Seconds  Ion 3  Temperature  Detector  Monitor
-1.0018947 0.270001 0 0 7173 1 96152 40.05 0 536
-0.80189474 0.270001 0 0 7176 1 96145 40.051 0 560
-0.60189474 0.270001 0 0 7179 1 96112 40.053 0 712
-0.40189474 0.270001 0 0 7182 1 96087 40.055 0 792
-0.20189474 0.270001 0 0 7185 1 96052 40.058 0 1033
-0.0018947368 0.270001 0 0 7189 1 96015 40.059 0 1440
0.19810526 0.270001 0 0 7192 1 95973 40.062 1 2795
0.39810526 0.270001 0 0 7195 1 95917 40.064 0 6613
0.59810526 0.270001 0 0 7198 1 95873 40.064 0 12295
0.79810526 0.270001 0 0 7201 1 95810 40.065 0 15796
0.99810526 0.270001 0 0 7204 1 95744 40.067 0 16738
1.1981053 0.270001 0 0 7208 1 95688 40.064 0 16061
1.3981053 0.270001 0 0 7211 1 95624 40.068 0 12369
1.5981053 0.270001 0 0 7214 1 95561 40.069 0 7028
1.7981053 0.270001 0 0 7217 1 95486 40.068 0 3261
1.9981053 0.270001 0 0 7220 1 95410 40.07 0 1916
2.1981053 0.270001 0 0 7223 1 95319 40.07 0 1455
2.3981053 0.270001 0 0 7227 1 95226 40.07 0 1075
2.5981053 0.270001 0 0 7230 1 95129 40.068 0 754
2.7981053 0.270001 0 0 7233 1 95049 40.07 0 552
2.9981053 0.270001 0 0 7236 1 95124 40.071 0 382

#S 15  qscan  -0.005 0.005 80 -20000
#D Wed Sep 22 17:43:23 2004
#M 20000  (Monitor)
#G0 0 0 0 0 0 1 0 0 0 0 0 0
#G1 6.28318 6.28318 6.28318 90 90 90 1 1 1 90 90 90 2 0 0 2 1 0 24 12 0 0 0 0 24 3.23 100 0 0 0 1.23984 1.45863
#G2 0
#Q 0.270001 0 0
#P0 3.053 1.5265 0 0 5 -23 1.0038947 0.12095238
#P1 7.997206 -29.999365 23.799848 0 60.999492 10.94175 252.94576 10.94175
#P2 -67.000254 -18.001016 37.5 3.479807 2.6301753 2.8956058 -0.81978664 -43.999873
#P3 2.000254 6.7995936 11.000127 35.819787 0.5 0.5 0.5 0.5
#P4 -11.1895 18.93736 
#N 7
#L Q  Epoch  Monitor  Ion 3  Temperature  Seconds  Detector
-0.005 7271 20003 113959 40.066 1.19 97
-0.004875 7272 20001 114632 40.064 1.197 93
-0.00475 7273 20002 113318 40.063 1.184 122
-0.004625 7275 20001 114252 40.064 1.193 117
-0.0045 7276 20003 114187 40.064 1.193 114
-0.004375 7277 20005 114163 40.064 1.192 114
-0.00425 7279 20001 115527 40.065 1.207 133
-0.004125 7280 20002 112893 40.063 1.179 142
-0.004 7281 20002 116906 40.06 1.221 150
-0.003875 7283 20002 115356 40.061 1.205 157
-0.00375 7284 20001 114725 40.063 1.198 174
-0.003625 7285 20001 113414 40.059 1.185 184
-0.0035 7287 20002 113253 40.058 1.183 193
-0.003375 7288 20003 115144 40.06 1.203 216
-0.00325 7289 20002 115686 40.056 1.208 226
-0.003125 7291 20001 114255 40.06 1.193 254
-0.003 7292 20002 113427 40.058 1.185 256
-0.002875 7293 20002 114104 40.057 1.192 272
-0.00275 7295 20001 114012 40.057 1.191 307
-0.002625 7296 20002 114391 40.057 1.195 366
-0.0025 7297 20001 114693 40.056 1.198 376
-0.002375 7299 20003 115138 40.055 1.203 436
-0.00225 7300 20001 114412 40.054 1.195 518
-0.002125 7301 20003 114835 40.053 1.2 547
-0.002 7302 20002 115244 40.052 1.204 673
-0.001875 7304 20003 115281 40.054 1.204 768
-0.00175 7305 20001 115203 40.054 1.204 903
-0.001625 7307 20004 115395 40.054 1.205 1091
-0.0015 7308 20002 113928 40.054 1.19 1406
-0.001375 7309 20002 113824 40.051 1.189 2134
-0.00125 7310 20002 114047 40.051 1.191 3292
-0.001125 7312 20001 114348 40.052 1.195 5716
-0.001 7313 20002 114724 40.049 1.198 13096
-0.000875 7314 20002 113961 40.049 1.191 29722
-0.00075 7316 20001 115050 40.05 1.202 52566
-0.000625 7317 20002 115548 40.049 1.207 71084
-0.0005 7318 20002 114703 40.047 1.198 80105
-0.000375 7320 20002 114020 40.049 1.191 83089
-0.00025 7321 20001 114516 40.048 1.196 84700
-0.000125 7322 20003 114316 40.048 1.194 84716
0 7324 20003 114327 40.047 1.195 83950
0.000125 7325 20002 113719 40.045 1.188 80992
0.00025 7326 20001 114746 40.046 1.199 75968
0.000375 7328 20002 112128 40.044 1.172 68606
0.0005 7329 20001 114685 40.044 1.198 62346
0.000625 7330 20002 115267 40.042 1.204 54004
0.00075 7332 20001 115016 40.042 1.202 46847
0.000875 7333 20001 115192 40.04 1.204 40743
0.001 7334 20002 114175 40.042 1.193 36067
0.001125 7336 20002 113653 40.04 1.188 31079
0.00125 7337 20006 113022 40.04 1.181 26295
0.001375 7338 20002 113977 40.039 1.191 23043
0.0015 7340 20001 114852 40.04 1.2 19213
0.001625 7341 20004 115089 40.039 1.203 16261
0.00175 7342 20001 114365 40.037 1.195 13897
0.001875 7344 20001 115024 40.04 1.202 11695
0.002 7345 20001 116145 40.036 1.214 9897
0.002125 7346 20002 114243 40.038 1.194 8482
0.00225 7348 20001 114974 40.037 1.202 7257
0.002375 7349 20005 115102 40.037 1.203 6280
0.0025 7350 20002 115175 40.037 1.204 5336
0.002625 7352 20001 112981 40.034 1.181 4342
0.00275 7353 20002 115370 40.035 1.206 3306
0.002875 7354 20002 114812 40.036 1.2 2429
0.003 7356 20004 114116 40.036 1.193 1616
0.003125 7357 20002 114869 40.034 1.201 944
0.00325 7358 20002 114481 40.031 1.196 598
0.003375 7360 20001 113344 40.032 1.185 351
0.0035 7361 20003 114234 40.031 1.194 236
0.003625 7362 20001 115876 40.033 1.211 203
0.00375 7364 20002 115819 40.031 1.21 181
0.003875 7365 20005 113042 40.032 1.181 142
0.004 7366 20003 115046 40.029 1.202 116
0.004125 7368 20003 114315 40.03 1.195 98
0.00425 7369 20003 115354 40.029 1.206 100
0.004375 7370 20004 113180 40.03 1.183 97
0.0045 7372 20003 114415 40.027 1.196 73
0.004625 7373 20001 115179 40.025 1.204 65
0.00475 7374 20003 113616 40.026 1.188 72
0.004875 7376 20001 114868 40.025 1.201 41
0.005 7377 20001 114024 40.026 1.192 51

#S 16  qscan  0.05 0.35 60 -40000
#D Wed Sep 22 17:45:22 2004
#M 40000  (Monitor)
#G0 0 0 0 0 0 1 0 0 0 0 0 0
#G1 6.28318 6.28318 6.28318 90 90 90 1 1 1 90 90 90 2 0 0 2 1 0 24 12 0 0 0 0 24 3.23 100 0 0 0 1.23984 1.45863
#G2 0
#Q 0.00499733 0 0
#P0 0.0565 0.02825 0 0 0 -23 1.0038947 0.12095238
#P1 7.997206 -29.999365 23.799848 0 60.999492 10.94175 252.94576 10.94175
#P2 -67.000254 -18.001016 37.5 3.479807 2.6301753 2.8956058 -0.81978664 -43.999873
#P3 2.000254 6.7995936 11.000127 35.819787 0.5 0.5 0.5 0.5
#P4 -11.1895 18.93736 
#N 7
#L Q  Epoch  Monitor  Ion 3  Temperature  Seconds  Detector
0.05 7384 40004 227615 40.023 2.38 17725
0.055 7387 40006 225467 40.025 2.357 13016
0.06 7390 40004 227462 40.024 2.378 9569
0.065 7393 40001 225631 40.021 2.359 6978
0.07 7396 40002 225226 40.021 2.355 5404
0.075 7399 40002 225963 40.021 2.363 4198
0.08 7402 40004 226211 40.017 2.365 3399
0.085 7405 40004 227002 40.016 2.374 2603
0.09 7408 40003 226274 40.017 2.366 2201
0.095 7411 40006 226396 40.014 2.368 1874
0.1 7413 40002 226474 40.016 2.368 1490
0.105 7416 40006 226932 40.015 2.373 1315
0.11 7419 40001 226095 40.015 2.364 1014
0.115 7422 40002 227848 40.012 2.383 952
0.12 7425 40003 226106 40.013 2.365 836
0.125 7428 40003 227307 40.012 2.377 803
0.13 7431 40003 225034 40.01 2.353 693
0.135 7434 40002 226563 40.012 2.369 624
0.14 7437 40004 227414 40.011 2.378 589
0.145 7440 40006 227110 40.009 2.376 544
0.15 7442 40003 225609 40.008 2.36 475
0.155 7445 40002 227235 40.008 2.377 489
0.16 7448 40007 225895 40.006 2.363 465
0.165 7451 40003 226716 40.008 2.371 481
0.17 7454 40008 227981 40.004 2.385 449
0.175 7457 40005 228109 40.004 2.386 445
0.18 7460 40005 226150 40.005 2.366 411
0.185 7463 40004 227906 40.003 2.384 447
0.19 7466 40001 226198 40.003 2.366 471
0.195 7469 40001 227455 40.004 2.38 501
0.2 7471 39989 226699 40.005 2.372 513
0.205 7474 40004 225990 40.003 2.364 557
0.21 7477 40006 226657 40.001 2.371 688
0.215 7480 40005 226155 40 2.366 819
0.22 7483 40003 225947 40.001 2.364 944
0.225 7486 40005 224395 40 2.348 878
0.23 7489 40003 226126 39.999 2.366 813
0.235 7492 40002 224980 40 2.354 774
0.24 7495 40003 226517 39.999 2.37 738
0.245 7497 40002 227627 39.997 2.382 644
0.25 7500 40005 227337 39.999 2.379 603
0.255 7503 40003 228241 39.998 2.389 620
0.26 7506 40004 226443 39.997 2.37 559
0.265 7509 40003 226355 39.997 2.369 537
0.27 7512 40004 227535 39.996 2.381 489
0.275 7515 40001 225595 39.998 2.361 481
0.28 7518 40003 227676 39.997 2.383 476
0.285 7521 40003 225340 39.997 2.358 418
0.29 7524 40003 227497 39.997 2.381 397
0.295 7527 40003 226972 39.996 2.376 428
0.3 7529 40003 226569 39.997 2.372 398
0.305 7532 40002 226355 39.996 2.369 358
0.31 7535 40002 227550 39.997 2.382 354
0.315 7538 40001 226564 39.996 2.372 354
#C Wed Sep 22 17:50:17 2004.  Scan aborted after 54 points.

#S 17  qscan  0.17 0.27 50 -160000
#D Wed Sep 22 18:09:50 2004
#M 160000  (Monitor)
#G0 0 0 0 0 0 1 0 0 0 0 0 0
#G1 6.28318 6.28318 6.28318 90 90 90 1 1 1 90 90 90 2 0 0 2 1 0 24 12 0 0 0 0 24 3.23 100 0 0 0 1.23984 1.45863
#G2 0
#Q 0.319997 0 0
#P0 3.6185 1.80925 0 0 0 -23 1.0038947 0.12095238
#P1 7.997206 -29.999365 23.799848 0 60.999492 10.94175 252.94576 10.94175
#P2 -67.000254 -18.001016 37.5 3.479807 2.6301753 2.8956058 -0.81978664 -43.999873
#P3 2.000254 6.7995936 11.000127 35.819787 0.5 0.5 0.5 0.5
#P4 -11.1895 18.93736 
#N 7
#L Q  Epoch  Monitor  Ion 3  Temperature  Seconds  Detector
0.17 8862 160006 1.14108e+06 40.002 8.501 1268
0.172 8871 160012 1.15495e+06 40.006 8.665 1221
0.174 8880 160008 1.16156e+06 40.003 8.751 1307
0.176 8889 160009 1.16562e+06 40.004 8.773 1254
0.178 8898 160010 1.15734e+06 40.003 8.636 1266
0.18 8907 160006 1.15455e+06 40.002 8.542 1280
0.182 8916 160014 1.15882e+06 40.004 8.49 1325
0.184 8925 160008 1.16296e+06 40.005 8.465 1239
0.186 8934 160010 1.17004e+06 40.004 8.481 1271
0.188 8943 160010 1.17466e+06 40.003 8.517 1273
0.19 8952 160017 1.16866e+06 40.003 8.512 1274
0.192 8961 160012 1.1716e+06 40.003 8.608 1310
0.194 8970 160012 1.17536e+06 40.003 8.703 1286
0.196 8979 160012 1.18286e+06 40.006 8.811 1409
0.198 8988 160008 1.1802e+06 40.006 8.825 1444
0.2 8997 160010 1.18408e+06 40.004 8.872 1436
0.202 9007 160008 1.18854e+06 40.005 8.921 1526
0.204 9016 160008 1.18463e+06 40.005 8.891 1555
0.206 9025 160010 1.1882e+06 40.003 8.919 1722
0.208 9034 160011 1.19142e+06 40.003 8.952 1714
0.21 9044 160013 1.19274e+06 40.005 8.97 1832
0.212 9053 160012 1.19053e+06 40.004 8.959 2080
0.214 9062 160009 1.18931e+06 40.004 8.959 2172
0.216 9072 160014 1.1914e+06 40.005 8.983 2436
0.218 9081 160010 1.19432e+06 40.005 9.011 2568
0.22 9090 160010 1.19022e+06 40.004 8.987 2563
0.222 9100 160003 1.16851e+06 40.003 9.036 2785
0.224 9109 160008 1.09984e+06 40.002 8.774 3282
0.226 9118 160010 1.08528e+06 40.003 8.624 3209
0.228 9127 160007 1.08926e+06 40.003 8.679 3017
0.23 9136 160010 1.10257e+06 40.005 8.889 3006
0.232 9146 160009 1.1109e+06 40.005 9.052 2806
0.234 9155 160004 1.11122e+06 40.001 9.051 2787
0.236 9165 160006 1.1072e+06 40.003 9.035 2583
0.238 9174 160011 1.10881e+06 40.003 9.07 2632
0.24 9183 160011 1.10806e+06 40.005 9.056 2445
0.242 9193 160006 1.10594e+06 40.002 9.031 2506
0.244 9201 160007 1.04608e+06 40.003 7.979 2221
0.246 9209 160007 1.00382e+06 40.003 7.176 1981
0.248 9216 160010 1.01378e+06 40.001 7.275 1988
0.25 9224 160012 1.01911e+06 40.005 7.341 1940
0.252 9232 160008 1.02568e+06 40.004 7.379 1875
0.254 9239 160005 1.02658e+06 40.005 7.39 1727
0.256 9247 160012 1.02928e+06 40.004 7.41 1712
0.258 9255 160003 1.02823e+06 40.003 7.4 1682
0.26 9263 160009 1.02933e+06 40.005 7.407 1704
0.262 9271 160010 1.02723e+06 40.002 7.389 1569
0.264 9278 160014 1.03014e+06 40.005 7.411 1581
0.266 9286 160013 1.02679e+06 40.003 7.383 1542
0.268 9294 160010 1.0292e+06 40.005 7.402 1496
0.27 9302 160007 1.02768e+06 40.004 7.392 1489
#C Wed Sep 22 18:46:28 2004.  do /u/clegg/macros/batch.mac.

#S 18  ascan  tabv -0.996105 3.00389  20 1
#D Wed Sep 22 18:46:28 2004
#T 1  (Seconds)
#G0 0 0 0 0 0 1 0 0 0 0 0 0
#G1 6.28318 6.28318 6.28318 90 90 90 1 1 1 90 90 90 2 0 0 2 1 0 24 12 0 0 0 0 24 3.23 100 0 0 0 1.23984 1.45863
#G2 0
#Q 0.270001 0 0
#P0 3.053 1.5265 0 0 5.5 -23 1.0038947 0.12095238
#P1 7.997206 -29.999365 23.799848 0 60.999492 10.94175 252.94576 10.94175
#P2 -67.000254 -18.001016 37.5 3.479807 2.6301753 2.8956058 -0.81978664 -43.999873
#P3 2.000254 6.7995936 11.000127 35.819787 0.5 0.5 0.5 0.5
#P4 -11.1895 18.93736 
#N 10
#L Tab Vert  H  K  L  Epoch  Seconds  Ion 3  Temperature  Detector  Monitor
-0.99610526 0.270001 0 0 11071 1 137028 35.049 0 795
-0.79610526 0.270001 0 0 11074 1 137157 35.048 0 950
-0.59610526 0.270001 0 0 11077 1 137246 35.048 0 1177
-0.39610526 0.270001 0 0 11081 1 137324 35.047 0 1542
-0.19610526 0.270001 0 0 11084 1 137370 35.047 0 2382
0.0038947368 0.270001 0 0 11087 1 137409 35.046 0 4944
0.20389474 0.270001 0 0 11090 1 137413 35.044 0 10089
0.40389474 0.270001 0 0 11093 1 137401 35.042 0 16941
0.60389474 0.270001 0 0 11096 1 137404 35.043 0 21449
0.80389474 0.270001 0 0 11100 1 137363 35.041 0 23111
1.0038947 0.270001 0 0 11103 1 136170 35.04 0 21392
1.2038947 0.270001 0 0 11106 1 137297 35.041 0 17048
1.4038947 0.270001 0 0 11109 1 137235 35.039 0 10474
1.6038947 0.270001 0 0 11112 1 137166 35.038 0 5372
1.8038947 0.270001 0 0 11116 1 137103 35.039 0 2971
2.0038947 0.270001 0 0 11119 1 137010 35.038 0 2007
2.2038947 0.270001 0 0 11122 1 136935 35.039 0 1423
2.4038947 0.270001 0 0 11125 1 136824 35.034 0 907
2.6038947 0.270001 0 0 11128 1 136727 35.034 0 705
2.8038947 0.270001 0 0 11131 1 136662 35.035 0 551
3.0038947 0.270001 0 0 11135 1 136782 35.034 0 455

#S 19  qscan  -0.005 0.005 80 -20000
#D Wed Sep 22 18:48:28 2004
#M 20000  (Monitor)
#G0 0 0 0 0 0 1 0 0 0 0 0 0
#G1 6.28318 6.28318 6.28318 90 90 90 1 1 1 90 90 90 2 0 0 2 1 0 24 12 0 0 0 0 24 3.23 100 0 0 0 1.23984 1.45863
#G2 0
#Q 0.270001 0 0
#P0 3.053 1.5265 0 0 5 -23 0.80884211 0.12095238
#P1 7.997206 -29.999365 23.799848 0 60.999492 10.94175 252.94576 10.94175
#P2 -67.000254 -18.001016 37.5 3.479807 2.6301753 2.8956058 -0.81978664 -43.999873
#P3 2.000254 6.7995936 11.000127 35.819787 0.5 0.5 0.5 0.5
#P4 -11.1895 18.93736 
#N 7
#L Q  Epoch  Monitor  Ion 3  Temperature  Seconds  Detector
-0.005 11175 20001 118760 35.023 0.865 129
-0.004875 11176 20002 119033 35.023 0.867 120
-0.00475 11177 20003 120384 35.021 0.876 134
-0.004625 11178 20002 119372 35.023 0.869 120
-0.0045 11179 20001 120058 35.022 0.874 112
-0.004375 11180 20001 118815 35.023 0.865 138
-0.00425 11181 20002 119577 35.021 0.871 155
-0.004125 11182 20001 119408 35.021 0.87 148
-0.004 11183 20001 119930 35.022 0.873 177
-0.003875 11184 20001 118387 35.023 0.862 177
-0.00375 11185 20001 119021 35.02 0.867 186
-0.003625 11186 20001 118964 35.02 0.866 192
-0.0035 11187 20002 120022 35.02 0.874 240
-0.003375 11188 20003 119419 35.018 0.87 241
-0.00325 11189 20001 118869 35.02 0.866 248
-0.003125 11190 20001 118576 35.018 0.863 248
-0.003 11191 20001 119659 35.019 0.871 311
-0.002875 11192 20001 118221 35.019 0.861 302
-0.00275 11193 20002 118940 35.019 0.866 335
-0.002625 11194 20001 120333 35.02 0.876 359
-0.0025 11195 20002 118068 35.017 0.86 386
-0.002375 11196 20002 120560 35.017 0.878 472
-0.00225 11197 20002 119514 35.017 0.87 514
-0.002125 11198 20003 119157 35.019 0.868 560
-0.002 11199 20001 119079 35.018 0.867 699
-0.001875 11200 20002 119876 35.016 0.873 787
-0.00175 11201 20006 121105 35.016 0.882 936
-0.001625 11202 20002 120382 35.016 0.877 1149
-0.0015 11203 20001 119925 35.017 0.873 1547
-0.001375 11204 20002 119881 35.016 0.873 2187
-0.00125 11205 20002 119374 35.015 0.869 3119
-0.001125 11206 20003 117663 35.014 0.857 4771
-0.001 11207 20001 118337 35.015 0.862 8935
-0.000875 11208 20004 120434 35.016 0.877 19302
-0.00075 11209 20003 120702 35.016 0.879 38306
-0.000625 11210 20001 120172 35.016 0.875 64010
-0.0005 11211 20001 119615 35.014 0.871 89157
-0.000375 11212 20001 119478 35.014 0.87 103238
-0.00025 11213 20001 120579 35.015 0.878 112808
-0.000125 11214 20001 117323 35.015 0.855 111044
0 11215 20001 118204 35.012 0.861 107344
0.000125 11216 20003 119692 35.014 0.872 97363
0.00025 11217 20001 119970 35.014 0.874 83164
0.000375 11218 20003 119934 35.014 0.874 68045
0.0005 11219 20003 118421 35.014 0.863 55258
0.000625 11220 20001 118593 35.014 0.864 44915
0.00075 11221 20002 120771 35.014 0.882 38054
0.000875 11222 20001 119190 35.013 0.868 31777
0.001 11223 20003 119737 35.013 0.872 27323
0.001125 11224 20001 119118 35.013 0.868 22825
0.00125 11225 20003 119931 35.012 0.873 19535
0.001375 11226 20003 119988 35.013 0.874 16203
0.0015 11227 20001 119841 35.012 0.873 12949
0.001625 11228 20002 119503 35.012 0.87 10667
0.00175 11229 20003 118914 35.013 0.866 9300
0.001875 11230 20001 119024 35.01 0.867 8084
0.002 11231 20001 119616 35.01 0.871 7131
0.002125 11232 20002 118418 35.01 0.863 5890
0.00225 11233 20001 120937 35.012 0.881 4933
0.002375 11234 20003 119343 35.011 0.869 4013
0.0025 11235 20002 119732 35.01 0.872 3209
0.002625 11236 20001 119845 35.01 0.873 2268
0.00275 11237 20002 118428 35.009 0.863 1392
0.002875 11238 20001 119369 35.008 0.87 969
0.003 11239 20003 119610 35.011 0.872 594
0.003125 11240 20001 119047 35.01 0.867 397
0.00325 11241 20002 117467 35.007 0.856 286
0.003375 11242 20001 118629 35.009 0.864 209
0.0035 11243 20002 118649 35.007 0.864 191
0.003625 11244 20003 119852 35.008 0.873 123
0.00375 11245 20001 120756 35.007 0.88 127
0.003875 11246 20001 119696 35.009 0.872 129
0.004 11247 20002 118873 35.007 0.866 94
0.004125 11248 20001 119226 35.007 0.869 100
0.00425 11249 20007 120337 35.009 0.877 62
0.004375 11250 20001 119334 35.007 0.869 69
0.0045 11251 20001 119827 35.006 0.873 51
0.004625 11252 20001 120627 35.006 0.879 66
0.00475 11253 20001 119343 35.009 0.87 53
0.004875 11254 20001 118958 35.007 0.867 55
0.005 11255 20002 118326 35.007 0.862 49

#S 20  qscan  0.05 0.35 60 -40000
#D Wed Sep 22 18:50:00 2004
#M 40000  (Monitor)
#G0 0 0 0 0 0 1 0 0 0 0 0 0
#G1 6.28318 6.28318 6.28318 90 90 90 1 1 1 90 90 90 2 0 0 2 1 0 24 12 0 0 0 0 24 3.23 100 0 0 0 1.23984 1.45863
#G2 0
#Q 0.00499733 0 0
#P0 0.0565 0.02825 0 0 0 -23 0.80884211 0.12095238
#P1 7.997206 -29.999365 23.799848 0 60.999492 10.94175 252.94576 10.94175
#P2 -67.000254 -18.001016 37.5 3.479807 2.6301753 2.8956058 -0.81978664 -43.999873
#P3 2.000254 6.7995936 11.000127 35.819787 0.5 0.5 0.5 0.5
#P4 -11.1895 18.93736 
#N 7
#L Q  Epoch  Monitor  Ion 3  Temperature  Seconds  Detector
0.05 11262 40006 237001 35.005 1.727 16993
0.055 11264 40005 237557 35.006 1.732 12527
0.06 11266 40006 235957 35.007 1.72 9120
0.065 11268 40001 236323 35.004 1.722 6924
0.07 11271 40004 238021 35.005 1.735 5128
0.075 11273 40003 234784 35.005 1.711 3983
0.08 11275 40003 236522 35.004 1.724 3096
0.085 11277 40006 235729 35.002 1.718 2583
0.09 11280 40002 235196 35.004 1.715 2012
0.095 11282 40002 234598 35.004 1.71 1760
0.1 11284 40003 235541 35.004 1.717 1474
0.105 11286 40002 236439 35.004 1.724 1213
0.11 11289 40004 235752 35.003 1.719 1025
0.115 11291 40006 236978 35.002 1.728 894
0.12 11293 40002 236220 35.002 1.722 786
0.125 11295 40002 235075 35.004 1.714 712
0.13 11298 40002 235943 35.001 1.72 639
0.135 11300 40003 235747 35.002 1.719 601
0.14 11302 40003 235016 35 1.713 532
0.145 11304 40004 234402 35.001 1.709 478
0.15 11307 40001 239632 35 1.747 475
0.155 11309 40002 237543 35 1.732 400
0.16 11311 40004 235178 35.001 1.715 376
0.165 11313 40002 237196 35.001 1.73 336
0.17 11316 40004 234977 34.999 1.714 332
0.175 11318 40004 238743 35.001 1.741 352
0.18 11320 40002 234939 34.999 1.713 321
0.185 11322 40005 236585 35.001 1.725 320
0.19 11325 40004 234905 35 1.713 322
0.195 11327 40007 237884 34.999 1.735 310
0.2 11329 40003 235174 35.001 1.715 323
0.205 11331 40007 236606 34.999 1.726 357
0.21 11334 40002 235144 34.998 1.715 377
0.215 11336 40003 236175 35.001 1.723 538
0.22 11338 40004 236561 34.998 1.73 3404
0.225 11340 40006 238145 35.001 1.737 598
0.23 11343 40002 236679 34.997 1.726 519
0.235 11345 40002 237121 34.997 1.73 486
0.24 11347 40002 235268 35 1.716 455
0.245 11349 40001 236089 34.997 1.722 442
0.25 11352 40001 237074 34.999 1.729 417
0.255 11354 40002 238246 35 1.738 410
0.26 11356 40008 235887 35 1.721 361
0.265 11358 40003 236126 34.999 1.723 385
0.27 11361 40004 236518 35 1.726 348
0.275 11363 40002 238228 34.997 1.738 327
0.28 11365 40007 235571 34.999 1.719 353
0.285 11367 40002 235869 34.999 1.721 334
0.29 11370 40002 235093 34.999 1.715 318
0.295 11372 40002 235668 34.999 1.719 319
0.3 11374 40002 236030 34.998 1.722 300
0.305 11376 40004 237667 34.999 1.734 297
0.31 11379 40002 236114 34.996 1.723 271
0.315 11381 40004 236924 34.998 1.729 276
0.32 11383 40002 236502 34.999 1.726 281
0.325 11386 40001 235708 34.997 1.72 270
0.33 11388 40003 236359 34.996 1.725 253
0.335 11390 40003 235940 34.999 1.722 259
0.34 11392 40006 235616 34.996 1.719 264
0.345 11395 40005 235144 34.998 1.716 219
0.35 11397 40007 234666 34.999 1.713 238

#S 21  qscan  0.17 0.27 50 -160000
#D Wed Sep 22 18:52:18 2004
#M 160000  (Monitor)
#G0 0 0 0 0 0 1 0 0 0 0 0 0
#G1 6.28318 6.28318 6.28318 90 90 90 1 1 1 90 90 90 2 0 0 2 1 0 24 12 0 0 0 0 24 3.23 100 0 0 0 1.23984 1.45863
#G2 0
#Q 0.349998 -5.90873e-08 -3.77189e-07
#P0 3.957875 1.979 0 0 0 -23 0.80884211 0.12095238
#P1 7.997206 -29.999365 23.799848 0 60.999492 10.94175 252.94576 10.94175
#P2 -67.000254 -18.001016 37.5 3.479807 2.6301753 2.8956058 -0.81978664 -43.999873
#P3 2.000254 6.7995936 11.000127 35.819787 0.5 0.5 0.5 0.5
#P4 -11.1895 18.93736 
#N 7
#L Q  Epoch  Monitor  Ion 3  Temperature  Seconds  Detector
0.17 11409 160015 943191 34.997 6.886 1352
0.172 11417 160008 945409 34.999 6.901 1434
0.174 11424 160012 943848 34.998 6.89 1347
0.176 11431 160010 944033 34.999 6.892 1347
0.178 11438 160005 946335 34.999 6.908 1308
0.18 11446 160016 944739 34.999 6.899 1316
0.182 11453 160013 943002 34.997 6.886 1281
0.184 11460 160013 946938 35.001 6.916 1233
0.186 11467 160018 943138 34.999 6.888 1316
0.188 11475 160014 943550 34.996 6.892 1248
0.19 11482 160011 942383 34.997 6.884 1299
0.192 11489 160018 943603 34.997 6.893 1252
0.194 11497 160008 945619 34.998 6.909 1281
0.196 11504 160017 945495 35 6.908 1251
0.198 11511 160010 944291 34.999 6.9 1310
0.2 11518 160012 950002 35 6.951 1237
0.202 11526 160007 945240 34.999 6.908 1283
0.204 11533 160009 947777 34.999 6.926 1264
0.206 11540 160008 946913 34.999 6.921 1349
0.208 11548 160010 947052 35.001 6.922 1412
0.21 11555 160009 945687 35.001 6.912 1489
0.212 11562 160005 946814 35 6.922 1608
0.214 11569 160010 943986 34.999 6.901 2011
0.216 11577 160013 943475 35 6.898 3356
0.218 11584 160007 944137 35.002 6.903 244464
0.22 11591 160011 945397 35.003 6.913 13793
0.222 11598 160009 943147 34.999 6.897 2762
0.224 11606 160011 946231 35 6.92 2416
0.226 11613 160008 943798 35.001 6.903 2254
0.228 11620 160004 944419 35.001 6.907 2232
0.23 11628 160009 944222 35.002 6.907 2096
0.232 11635 160006 940669 35.001 6.881 1961
0.234 11642 160019 944858 35.003 6.912 2014
0.236 11649 160008 943288 35.003 6.901 1865
0.238 11657 160009 941535 35.004 6.888 1800
0.24 11664 160006 941889 35.003 6.891 1793
0.242 11671 160009 946429 35.003 6.925 1812
0.244 11678 160008 943263 35.003 6.903 1656
0.246 11686 160008 943097 35.005 6.901 1752
0.248 11693 160007 943149 35.002 6.902 1730
0.25 11700 160010 945835 35.003 6.923 1630
0.252 11708 160013 944540 35.003 6.914 1609
0.254 11715 160009 947480 35.003 6.936 1613
0.256 11722 160016 942479 35.002 6.899 1583
0.258 11729 160014 941623 35.003 6.893 1543
0.26 11737 160010 946749 35.002 6.932 1521
0.262 11744 160014 945333 35.005 6.921 1403
0.264 11751 160007 942274 35.004 6.907 1475
0.266 11758 160011 940426 35.005 6.886 1442
0.268 11766 160006 945004 35.005 6.92 1519
0.27 11773 160009 949368 35.002 6.952 1340

#S 22  qscan  0.208 0.228 80 -40000
#D Wed Sep 22 19:00:33 2004
#M 40000  (Monitor)
#G0 0 0 0 0 0 1 0 0 0 0 0 0
#G1 6.28318 6.28318 6.28318 90 90 90 1 1 1 90 90 90 2 0 0 2 1 0 24 12 0 0 0 0 24 3.23 100 0 0 0 1.23984 1.45863
#G2 0
#Q 0.270001 0 0
#P0 3.053 1.5265 0 0 0 -23 0.80884211 0.12095238
#P1 7.997206 -29.999365 23.799848 0 60.999492 10.94175 252.94576 10.94175
#P2 -67.000254 -18.001016 37.5 3.479807 2.6301753 2.8956058 -0.81978664 -43.999873
#P3 2.000254 6.7995936 11.000127 35.819787 0.5 0.5 0.5 0.5
#P4 -11.1895 18.93736 
#N 7
#L Q  Epoch  Monitor  Ion 3  Temperature  Seconds  Detector
0.208 11896 40006 236725 35.004 1.735 319
0.20825 11898 40005 234941 35.005 1.722 337
0.2085 11900 40004 236603 35.004 1.734 356
0.20875 11902 40007 236647 35.003 1.735 374
0.209 11904 40003 236838 35.003 1.736 351
0.20925 11906 40003 235123 35.005 1.724 378
0.2095 11907 40005 235320 35.004 1.725 308
0.20975 11909 40003 237227 35.003 1.739 368
0.21 11911 40003 236893 35.005 1.737 341
0.21025 11913 40004 236454 35.003 1.734 340
0.2105 11915 40005 237363 35.003 1.74 384
0.21075 11917 40004 237480 35.003 1.741 368
0.211 11919 40002 235126 35.004 1.724 384
0.21125 11921 40003 236856 35.001 1.737 391
0.2115 11923 40006 236005 35.003 1.731 363
0.21175 11925 40003 235921 35.004 1.73 392
0.212 11926 40002 237773 35.003 1.754 382
0.21225 11928 40004 237632 35.004 1.742 382
0.2125 11930 40003 237764 35.003 1.743 435
0.21275 11932 40003 236996 35.003 1.738 436
0.213 11934 40005 233432 35.004 1.712 406
0.21325 11936 40006 237200 35.003 1.739 473
0.2135 11938 40003 237713 35.003 1.743 427
0.21375 11940 40004 236251 35.004 1.733 468
0.214 11942 40001 237203 35.004 1.739 470
0.21425 11944 40007 233777 35.005 1.714 453
0.2145 11945 40002 236720 35.003 1.736 529
0.21475 11947 40003 236857 35.006 1.737 546
0.215 11949 40006 234572 35.004 1.72 555
0.21525 11951 40002 234694 35.005 1.721 583
0.2155 11953 40003 235050 35.002 1.724 652
0.21575 11955 40005 235584 35.001 1.728 746
0.216 11957 40006 234616 35.005 1.721 819
0.21625 11959 40004 234245 35.002 1.718 937
0.2165 11961 40004 236831 35.005 1.737 1148
0.21675 11963 40006 235831 35.003 1.73 1456
0.217 11964 40001 235064 35.003 1.724 2566
0.21725 11966 40008 235501 35.003 1.728 6728
0.2175 11968 40001 238905 35.004 1.753 25043
0.21775 11970 40003 236266 35.003 1.733 48462
0.218 11972 40002 235596 35.004 1.728 55336
0.21825 11974 40003 237170 35.004 1.74 47741
0.2185 11976 40004 233312 35.003 1.711 32962
0.21875 11978 40003 236950 35.004 1.738 21612
0.219 11980 40006 234550 35.005 1.721 14394
0.21925 11981 40006 237061 35.002 1.739 9839
0.2195 11983 40004 236416 35.003 1.735 6547
0.21975 11985 40003 235003 35.005 1.724 4690
0.22 11987 40004 232943 35.001 1.709 3559
0.22025 11989 40004 235888 35.004 1.731 2420
0.2205 11991 40005 236668 35.004 1.737 1574
0.22075 11993 40005 235139 35.002 1.725 1039
0.221 11995 40002 235428 35.005 1.727 869
0.22125 11997 40004 237532 35.005 1.743 832
0.2215 11999 40001 235545 35.005 1.728 722
0.22175 12000 40003 235365 35.003 1.727 686
0.222 12002 40002 235842 35.005 1.731 690
0.22225 12004 40004 236718 35.004 1.737 699
0.2225 12006 40004 235397 35.003 1.727 669
0.22275 12008 40007 234434 35.004 1.72 623
0.223 12010 40001 236870 35.003 1.738 622
0.22325 12012 40002 234892 35.005 1.724 610
0.2235 12014 40004 237458 35.003 1.743 622
0.22375 12016 40002 236464 35.003 1.735 555
0.224 12017 40001 235343 35.002 1.727 600
0.22425 12019 40003 235955 35.003 1.732 546
0.2245 12021 40002 236246 35.003 1.734 559
0.22475 12023 40005 237119 35.005 1.74 627
0.225 12025 40003 233061 35.005 1.711 585
0.22525 12027 40003 236888 35.004 1.739 577
0.2255 12029 40003 235999 35.005 1.732 561
0.22575 12031 40005 233530 35.004 1.714 555
0.226 12033 40004 235802 35.005 1.731 524
0.22625 12035 40003 237337 35.006 1.742 584
0.2265 12036 40002 235491 35.005 1.728 576
0.22675 12038 40004 234391 35.005 1.72 567
0.227 12040 40005 234149 35.006 1.719 584
0.22725 12042 40002 236470 35.005 1.736 519
0.2275 12044 40002 235051 35.006 1.726 553
0.22775 12046 40003 234097 35.005 1.718 509
0.228 12048 40003 235994 35.005 1.732 526
#C Wed Sep 22 19:36:27 2004.  do /u/clegg/macros/batch.mac.

#S 23  ascan  tabv -1.19116 2.80884  20 1
#D Wed Sep 22 19:36:27 2004
#T 1  (Seconds)
#G0 0 0 0 0 0 1 0 0 0 0 0 0
#G1 6.28318 6.28318 6.28318 90 90 90 1 1 1 90 90 90 2 0 0 2 1 0 24 12 0 0 0 0 24 3.23 100 0 0 0 1.23984 1.45863
#G2 0
#Q 0.228001 0 0
#P0 2.578 1.289 0 0 5.5 -23 0.80884211 0.12095238
#P1 7.997206 -29.999365 23.799848 0 60.999492 10.94175 252.94576 10.94175
#P2 -67.000254 -18.001016 37.5 3.479807 2.6301753 2.8956058 -0.81978664 -43.999873
#P3 2.000254 6.7995936 11.000127 35.819787 0.5 0.5 0.5 0.5
#P4 -11.1895 18.93736 
#N 10
#L Tab Vert  H  K  L  Epoch  Seconds  Ion 3  Temperature  Detector  Monitor
-1.1911579 0.228001 0 0 14070 1 133186 37.976 0 710
-0.99115789 0.228001 0 0 14073 1 133315 37.977 0 770
-0.79115789 0.228001 0 0 14077 1 133439 37.977 0 899
-0.59115789 0.228001 0 0 14080 1 133514 37.978 0 1153
-0.39115789 0.228001 0 0 14083 1 133570 37.978 0 1466
-0.19115789 0.228001 0 0 14086 1 133606 37.976 0 2219
0.0088421053 0.228001 0 0 14089 1 133639 37.975 0 4545
0.20884211 0.228001 0 0 14092 1 133620 37.976 0 9463
0.40884211 0.228001 0 0 14096 1 133618 37.977 0 15917
0.60884211 0.228001 0 0 14099 1 133605 37.979 0 20820
0.80884211 0.228001 0 0 14102 1 133549 37.977 0 22943
1.0088421 0.228001 0 0 14105 1 133524 37.977 0 21264
1.2088421 0.228001 0 0 14108 1 133463 37.977 0 16897
1.4088421 0.228001 0 0 14111 1 133418 37.976 0 10688
1.6088421 0.228001 0 0 14115 1 133364 37.978 0 5462
1.8088421 0.228001 0 0 14118 1 133278 37.978 0 3089
2.0088421 0.228001 0 0 14121 1 133202 37.976 0 1962
2.2088421 0.228001 0 0 14124 1 133105 37.977 0 1429
2.4088421 0.228001 0 0 14127 1 132996 37.979 0 1001
2.6088421 0.228001 0 0 14130 1 132882 37.978 0 706
2.8088421 0.228001 0 0 14134 1 132816 37.98 0 591

#S 24  qscan  -0.005 0.005 80 -20000
#D Wed Sep 22 19:38:21 2004
#M 20000  (Monitor)
#G0 0 0 0 0 0 1 0 0 0 0 0 0
#G1 6.28318 6.28318 6.28318 90 90 90 1 1 1 90 90 90 2 0 0 2 1 0 24 12 0 0 0 0 24 3.23 100 0 0 0 1.23984 1.45863
#G2 0
#Q 0.228001 0 0
#P0 2.578 1.289 0 0 5 -23 0.82736842 0.12095238
#P1 7.997206 -29.999365 23.799848 0 60.999492 10.94175 252.94576 10.94175
#P2 -67.000254 -18.001016 37.5 3.479807 2.6301753 2.8956058 -0.81978664 -43.999873
#P3 2.000254 6.7995936 11.000127 35.819787 0.5 0.5 0.5 0.5
#P4 -11.1895 18.93736 
#N 7
#L Q  Epoch  Monitor  Ion 3  Temperature  Seconds  Detector
-0.005 14167 20002 118898 37.984 0.89 91
-0.004875 14168 20002 117358 37.983 0.879 114
-0.00475 14169 20001 119310 37.985 0.894 105
-0.004625 14170 20001 117276 37.983 0.878 122
-0.0045 14171 20002 118340 37.982 0.886 107
-0.004375 14172 20003 116159 37.983 0.87 128
-0.00425 14173 20001 117460 37.985 0.88 131
-0.004125 14174 20001 118839 37.983 0.89 171
-0.004 14175 20002 117880 37.986 0.883 160
-0.003875 14176 20001 118128 37.984 0.885 183
-0.00375 14177 20001 119049 37.983 0.892 184
-0.003625 14178 20003 119312 37.987 0.894 194
-0.0035 14179 20002 119655 37.984 0.896 214
-0.003375 14180 20002 118686 37.987 0.889 232
-0.00325 14181 20004 119718 37.987 0.897 247
-0.003125 14182 20002 117784 37.986 0.882 277
-0.003 14183 20001 118732 37.986 0.889 272
-0.002875 14184 20004 117849 37.986 0.883 313
-0.00275 14185 20002 118486 37.987 0.887 348
-0.002625 14186 20003 117641 37.988 0.881 365
-0.0025 14187 20002 118374 37.986 0.887 428
-0.002375 14188 20002 118262 37.986 0.886 443
-0.00225 14189 20001 119279 37.986 0.893 516
-0.002125 14190 20001 117991 37.987 0.884 554
-0.002 14191 20001 118765 37.986 0.89 669
-0.001875 14193 20002 118359 37.987 0.887 749
-0.00175 14194 20002 117589 37.986 0.881 929
-0.001625 14195 20002 117888 37.986 0.883 1144
-0.0015 14196 20002 119251 37.988 0.893 1472
-0.001375 14197 20001 118018 37.988 0.884 1997
-0.00125 14198 20004 117749 37.989 0.882 2838
-0.001125 14199 20004 119234 37.988 0.893 4559
-0.001 14200 20002 119299 37.988 0.894 8197
-0.000875 14201 20002 119472 37.989 0.895 17024
-0.00075 14202 20004 119094 37.988 0.892 33965
-0.000625 14203 20003 118524 37.991 0.888 59735
-0.0005 14204 20004 116989 37.991 0.876 82763
-0.000375 14205 20003 119034 37.989 0.892 100330
-0.00025 14206 20001 117049 37.989 0.877 107102
-0.000125 14207 20001 118939 37.99 0.891 112495
0 14208 20002 118472 37.989 0.888 108621
0.000125 14209 20001 119076 37.99 0.892 101081
0.00025 14210 20002 118819 37.992 0.89 87318
0.000375 14211 20002 118158 37.99 0.885 73636
0.0005 14212 20001 117978 37.992 0.884 60133
0.000625 14213 20001 117327 37.991 0.879 49016
0.00075 14214 20001 118324 37.992 0.886 41283
0.000875 14215 20003 117470 37.993 0.88 34218
0.001 14216 20003 118198 37.99 0.886 29551
0.001125 14217 20003 119288 37.992 0.894 25056
0.00125 14218 20001 119446 37.991 0.895 21903
0.001375 14219 20001 118372 37.993 0.887 17951
0.0015 14220 20002 119550 37.992 0.896 14695
0.001625 14221 20002 118042 37.992 0.885 11951
0.00175 14222 20003 117544 37.994 0.881 10460
0.001875 14223 20002 117333 37.991 0.879 8892
0.002 14224 20002 117999 37.994 0.884 7746
0.002125 14225 20002 117304 37.992 0.879 6706
0.00225 14226 20002 118773 37.993 0.89 5909
0.002375 14227 20002 117765 37.994 0.882 4763
0.0025 14228 20002 118543 37.993 0.888 3829
0.002625 14229 20002 117288 37.992 0.879 2779
0.00275 14230 20003 117561 37.993 0.881 1872
0.002875 14231 20004 117502 37.994 0.88 1148
0.003 14232 20004 119813 37.995 0.898 753
0.003125 14233 20001 118172 37.994 0.886 461
0.00325 14234 20002 118399 37.996 0.887 349
0.003375 14235 20003 116796 37.995 0.875 262
0.0035 14236 20004 118611 37.995 0.889 183
0.003625 14237 20003 117499 37.994 0.881 166
0.00375 14238 20001 118140 37.994 0.885 118
0.003875 14239 20002 118813 37.996 0.89 149
0.004 14240 20002 118474 37.995 0.888 97
0.004125 14241 20002 117693 37.995 0.882 76
0.00425 14243 20003 119116 37.995 0.893 73
0.004375 14244 20001 118002 37.996 0.884 81
0.0045 14245 20003 117936 37.997 0.884 78
0.004625 14246 20002 118026 37.996 0.884 60
0.00475 14247 20002 118045 37.998 0.885 68
0.004875 14248 20002 118546 37.998 0.888 42
0.005 14249 20003 118446 37.995 0.888 45

#S 25  qscan  0.17 0.27 50 -160000
#D Wed Sep 22 19:39:54 2004
#M 160000  (Monitor)
#G0 0 0 0 0 0 1 0 0 0 0 0 0
#G1 6.28318 6.28318 6.28318 90 90 90 1 1 1 90 90 90 2 0 0 2 1 0 24 12 0 0 0 0 24 3.23 100 0 0 0 1.23984 1.45863
#G2 0
#Q 0.00499733 0 0
#P0 0.0565 0.02825 0 0 0 -23 0.82736842 0.12095238
#P1 7.997206 -29.999365 23.799848 0 60.999492 10.94175 252.94576 10.94175
#P2 -67.000254 -18.001016 37.5 3.479807 2.6301753 2.8956058 -0.81978664 -43.999873
#P3 2.000254 6.7995936 11.000127 35.819787 0.5 0.5 0.5 0.5
#P4 -11.1895 18.93736 
#N 7
#L Q  Epoch  Monitor  Ion 3  Temperature  Seconds  Detector
0.17 14263 160011 936556 37.998 7.023 1472
0.172 14271 160011 941402 37.997 7.06 1535
0.174 14278 160007 937069 37.998 7.028 1488
0.176 14286 160017 933680 38.001 7.008 1471
0.178 14293 160010 935003 38.002 7.013 1434
0.18 14300 160015 939569 38.002 7.047 1415
0.182 14308 160009 935066 38.004 7.015 1377
0.184 14315 160005 938996 38.003 7.045 1394
0.186 14322 160008 936326 38.002 7.024 1394
0.188 14330 160011 934569 38.004 7.011 1405
0.19 14337 160011 930386 38.006 6.98 1413
0.192 14345 160007 938761 38.007 7.044 1426
0.194 14352 160007 937989 38.006 7.039 1433
0.196 14359 160012 937500 38.008 7.036 1461
0.198 14367 160011 933101 38.008 7.003 1421
0.2 14374 160008 937331 38.007 7.036 1515
0.202 14382 160011 935285 38.006 7.022 1528
0.204 14389 160013 938008 38.007 7.042 1531
0.206 14396 160010 936185 38.01 7.029 1649
0.208 14404 160008 939718 38.009 7.061 1698
0.21 14411 160012 937454 38.011 7.04 1802
0.212 14419 160010 936519 38.008 7.033 2043
0.214 14426 160011 936026 38.01 7.03 2238
0.216 14433 160006 935429 38.009 7.026 2883
0.218 14441 160013 937901 38.006 7.045 14834
0.22 14448 160005 940520 38.01 7.066 22358
0.222 14456 160011 934948 38.007 7.024 4211
0.224 14463 160007 936158 38.01 7.038 3491
0.226 14470 160008 935408 38.008 7.028 3118
0.228 14478 160008 938395 38.01 7.051 2816
0.23 14485 160013 937510 38.009 7.044 2729
0.232 14493 160012 936870 38.009 7.041 2481
0.234 14500 160011 931349 38.01 6.999 2365
0.236 14508 160018 935825 38.009 7.033 2294
0.238 14515 160008 933782 38.009 7.019 2358
0.24 14522 160009 936418 38.009 7.039 2156
0.242 14530 160009 931239 38.009 7 1998
0.244 14537 160015 933688 38.009 7.019 2018
0.246 14544 160017 935218 38.007 7.031 2034
0.248 14552 160009 934099 38.009 7.024 1957
0.25 14559 160010 936396 38.007 7.041 1910
0.252 14567 160011 936413 38.009 7.042 1947
0.254 14574 160008 935676 38.008 7.037 1804
0.256 14581 160012 932777 38.008 7.014 1824
0.258 14589 160014 931429 38.007 7.005 1752
0.26 14596 160011 938369 38.008 7.058 1769
0.262 14604 160007 939794 38.006 7.069 1714
0.264 14611 160008 937465 38.009 7.052 1723
0.266 14618 160015 937010 38.006 7.049 1635
0.268 14626 160006 934821 38.007 7.032 1594
0.27 14633 160015 937508 38.006 7.054 1571

#S 26  qscan  0.208 0.228 80 -40000
#D Wed Sep 22 19:46:15 2004
#M 40000  (Monitor)
#G0 0 0 0 0 0 1 0 0 0 0 0 0
#G1 6.28318 6.28318 6.28318 90 90 90 1 1 1 90 90 90 2 0 0 2 1 0 24 12 0 0 0 0 24 3.23 100 0 0 0 1.23984 1.45863
#G2 0
#Q 0.270001 0 0
#P0 3.053 1.5265 0 0 0 -23 0.82736842 0.12095238
#P1 7.997206 -29.999365 23.799848 0 60.999492 10.94175 252.94576 10.94175
#P2 -67.000254 -18.001016 37.5 3.479807 2.6301753 2.8956058 -0.81978664 -43.999873
#P3 2.000254 6.7995936 11.000127 35.819787 0.5 0.5 0.5 0.5
#P4 -11.1895 18.93736 
#N 7
#L Q  Epoch  Monitor  Ion 3  Temperature  Seconds  Detector
0.208 14638 40002 232097 38.007 1.746 395
0.20825 14640 40004 234975 38.006 1.768 454
0.2085 14642 40004 233399 38.008 1.756 454
0.20875 14644 40003 234832 38.008 1.767 411
0.209 14646 40002 234448 38.007 1.764 448
0.20925 14648 40001 233406 38.005 1.756 409
0.2095 14650 40004 232071 38.007 1.746 418
0.20975 14652 40002 235111 38.005 1.769 447
0.21 14653 40003 233804 38.007 1.759 444
0.21025 14655 40002 236253 38.005 1.778 451
0.2105 14657 40002 233568 38.006 1.757 452
0.21075 14659 40005 233872 38.008 1.76 469
0.211 14661 40003 234045 38.006 1.761 448
0.21125 14663 40003 233350 38.004 1.756 513
0.2115 14665 40002 235431 38.008 1.772 479
0.21175 14667 40002 232079 38.006 1.746 454
0.212 14669 40006 233365 38.006 1.756 486
0.21225 14671 40005 231145 38.008 1.739 477
0.2125 14673 40002 232300 38.008 1.748 529
0.21275 14675 40002 234746 38.007 1.767 480
0.213 14677 40001 232406 38.008 1.749 557
0.21325 14679 40004 233686 38.005 1.759 486
0.2135 14680 40004 233567 38.006 1.758 562
0.21375 14682 40005 233692 38.004 1.759 549
0.214 14684 40004 233379 38.007 1.756 549
0.21425 14686 40002 232108 38.004 1.747 580
0.2145 14688 40002 232016 38.007 1.746 569
0.21475 14690 40004 234077 38.006 1.762 647
0.215 14692 40002 235818 38.004 1.782 625
0.21525 14694 40004 233977 38.006 1.761 597
0.2155 14696 40002 234180 38.007 1.762 619
0.21575 14698 40002 233224 38.005 1.755 647
0.216 14700 40003 233133 38.007 1.755 723
0.21625 14702 40002 233636 38.007 1.759 812
0.2165 14703 40002 234109 38.006 1.762 818
0.21675 14705 40004 231316 38.006 1.741 894
0.217 14707 40002 234197 38.006 1.763 936
0.21725 14709 40006 234529 38.007 1.766 1061
0.2175 14711 40002 233673 38.005 1.759 1228
0.21775 14713 40002 234583 38.006 1.766 1750
0.218 14715 40003 233436 38.006 1.757 3140
0.21825 14717 40001 234791 38.005 1.767 10592
0.2185 14719 40003 235340 38.006 1.772 21134
0.21875 14721 40002 235533 38.006 1.773 25237
0.219 14723 40003 233729 38.006 1.76 22623
0.21925 14725 40002 230779 38.007 1.737 16296
0.2195 14727 40002 235750 38.004 1.775 11057
0.21975 14728 40004 232377 38.006 1.749 7924
0.22 14730 40003 232550 38.004 1.751 6007
0.22025 14732 40005 233909 38.006 1.761 4171
0.2205 14734 40002 233156 38.004 1.755 3260
0.22075 14736 40001 237395 38.007 1.787 2561
0.221 14738 40005 235146 38.005 1.77 1991
0.22125 14740 40004 234279 38.004 1.764 1522
0.2215 14742 40002 231392 38.004 1.742 1227
0.22175 14744 40003 234427 38.006 1.765 1041
0.222 14746 40006 233942 38.004 1.761 1058
0.22225 14748 40007 234171 38.004 1.763 1047
0.2225 14750 40003 232396 38.006 1.75 990
0.22275 14752 40007 234864 38.005 1.775 903
0.223 14754 40001 233839 38.004 1.761 928
0.22325 14755 40002 233527 38.004 1.758 946
0.2235 14757 40005 232765 38.004 1.753 890
0.22375 14759 40007 233028 38.004 1.755 830
0.224 14761 40002 233561 38.005 1.759 870
0.22425 14763 40001 235840 38.004 1.776 849
0.2245 14765 40001 234979 38.006 1.77 775
0.22475 14767 40003 234866 38.006 1.769 830
0.225 14769 40003 233301 38.007 1.757 780
0.22525 14771 40006 235176 38.004 1.771 827
0.2255 14773 40004 234991 38.006 1.77 796
0.22575 14775 40007 235394 38.007 1.773 706
0.226 14777 40003 234750 38.006 1.768 796
0.22625 14779 40003 230319 38.004 1.735 718
0.2265 14781 40004 234809 38.004 1.769 777
0.22675 14782 40003 233244 38.006 1.757 733
0.227 14784 40002 234768 38.007 1.768 731
0.22725 14786 40001 233267 38.007 1.757 714
0.2275 14788 40005 235042 38.003 1.77 719
0.22775 14790 40002 235518 38.006 1.774 778
0.228 14792 40006 233407 38.002 1.758 742
#C Wed Sep 22 20:12:49 2004.  do /u/clegg/macros/batch.mac.

#S 27  ascan  tabv -1.17263 2.82737  20 1
#D Wed Sep 22 20:12:49 2004
#T 1  (Seconds)
#G0 0 0 0 0 0 1 0 0 0 0 0 0
#G1 6.28318 6.28318 6.28318 90 90 90 1 1 1 90 90 90 2 0 0 2 1 0 24 12 0 0 0 0 24 3.23 100 0 0 0 1.23984 1.45863
#G2 0
#Q 0.228001 0 0
#P0 2.578 1.289 0 0 5.5 -23 0.82736842 0.12095238
#P1 7.997206 -29.999365 23.799848 0 60.999492 10.94175 252.94576 10.94175
#P2 -67.000254 -18.001016 37.5 3.479807 2.6301753 2.8956058 -0.81978664 -43.999873
#P3 2.000254 6.7995936 11.000127 35.819787 0.5 0.5 0.5 0.5
#P4 -11.1895 18.93736 
#N 10
#L Tab Vert  H  K  L  Epoch  Seconds  Ion 3  Temperature  Detector  Monitor
-1.1726316 0.228001 0 0 16252 1 130517 42.007 0 686
-0.97263158 0.228001 0 0 16255 1 130625 42.007 0 764
-0.77263158 0.228001 0 0 16258 1 130720 42.009 0 930
-0.57263158 0.228001 0 0 16262 1 130790 42.005 0 1071
-0.37263158 0.228001 0 0 16265 1 130842 42.005 0 1416
-0.17263158 0.228001 0 0 16268 1 130869 42.007 0 2192
0.027368421 0.228001 0 0 16271 1 130880 42.005 0 4341
0.22736842 0.228001 0 0 16274 1 130892 42.006 0 9259
0.42736842 0.228001 0 0 16277 1 130877 42.007 0 15729
0.62736842 0.228001 0 0 16281 1 130741 42.007 0 20650
0.82736842 0.228001 0 0 16284 1 130809 42.007 0 22463
1.0273684 0.228001 0 0 16287 1 130764 42.005 0 21094
1.2273684 0.228001 0 0 16290 1 130697 42.007 0 16723
1.4273684 0.228001 0 0 16293 1 130654 42.006 0 10311
1.6273684 0.228001 0 0 16296 1 130600 42.005 0 5236
1.8273684 0.228001 0 0 16300 1 130529 42.007 0 2954
2.0273684 0.228001 0 0 16303 1 130436 42.007 0 1942
2.2273684 0.228001 0 0 16306 1 130348 42.007 0 1333
2.4273684 0.228001 0 0 16309 1 130237 42.007 0 953
2.6273684 0.228001 0 0 16312 1 130143 42.006 0 682
2.8273684 0.228001 0 0 16315 1 130099 42.007 0 532

#S 28  qscan  -0.005 0.005 80 -20000
#D Wed Sep 22 20:14:43 2004
#M 20000  (Monitor)
#G0 0 0 0 0 0 1 0 0 0 0 0 0
#G1 6.28318 6.28318 6.28318 90 90 90 1 1 1 90 90 90 2 0 0 2 1 0 24 12 0 0 0 0 24 3.23 100 0 0 0 1.23984 1.45863
#G2 0
#Q 0.228001 0 0
#P0 2.578 1.289 0 0 5 -23 0.84347368 0.12095238
#P1 7.997206 -29.999365 23.799848 0 60.999492 10.94175 252.94576 10.94175
#P2 -67.000254 -18.001016 37.5 3.479807 2.6301753 2.8956058 -0.81978664 -43.999873
#P3 2.000254 6.7995936 11.000127 35.819787 0.5 0.5 0.5 0.5
#P4 -11.1895 18.93736 
#N 7
#L Q  Epoch  Monitor  Ion 3  Temperature  Seconds  Detector
-0.005 16349 20005 117958 42.004 0.902 93
-0.004875 16350 20001 116741 42.004 0.893 122
-0.00475 16351 20001 117947 42.004 0.902 113
-0.004625 16352 20002 117894 42.004 0.901 132
-0.0045 16353 20001 117598 42.004 0.899 125
-0.004375 16354 20003 117525 42.005 0.898 108
-0.00425 16355 20002 116224 42.005 0.888 132
-0.004125 16356 20002 118390 42.006 0.905 148
-0.004 16357 20002 118368 42.005 0.905 146
-0.003875 16358 20002 116416 42.005 0.89 171
-0.00375 16359 20005 117227 42.007 0.896 171
-0.003625 16360 20001 118791 42.006 0.908 184
-0.0035 16361 20001 118260 42.006 0.904 214
-0.003375 16362 20002 117003 42.006 0.895 237
-0.00325 16363 20001 117719 42.007 0.9 237
-0.003125 16364 20002 117456 42.007 0.898 245
-0.003 16365 20001 115724 42.006 0.885 261
-0.002875 16366 20001 117448 42.005 0.898 337
-0.00275 16367 20002 117459 42.006 0.898 347
-0.002625 16368 20001 118093 42.005 0.903 400
-0.0025 16370 20004 118215 42.005 0.904 417
-0.002375 16371 20001 117495 42.008 0.898 456
-0.00225 16372 20002 118310 42.005 0.905 500
-0.002125 16373 20003 118758 42.004 0.908 577
-0.002 16374 20003 116500 42.005 0.891 648
-0.001875 16375 20004 117178 42.007 0.896 748
-0.00175 16376 20002 118784 42.007 0.908 961
-0.001625 16377 20003 115848 42.006 0.886 1150
-0.0015 16378 20003 116697 42.006 0.892 1447
-0.001375 16379 20006 117080 42.004 0.895 2032
-0.00125 16380 20001 117451 42.007 0.898 2887
-0.001125 16381 20001 117362 42.004 0.898 4343
-0.001 16382 20001 117688 42.005 0.9 8232
-0.000875 16383 20001 117201 42.006 0.896 16916
-0.00075 16384 20002 117178 42.005 0.896 34493
-0.000625 16385 20001 118220 42.005 0.904 60141
-0.0005 16386 20003 117817 42.007 0.901 84079
-0.000375 16387 20004 118412 42.004 0.906 98929
-0.00025 16388 20002 116594 42.005 0.892 106124
-0.000125 16389 20003 117086 42.004 0.896 109077
0 16390 20002 116981 42.007 0.895 105909
0.000125 16391 20002 118757 42.006 0.908 100256
0.00025 16392 20001 117337 42.004 0.898 85981
0.000375 16393 20002 117277 42.007 0.897 73337
0.0005 16394 20001 116108 42.007 0.888 60271
0.000625 16395 20003 116341 42.006 0.89 49147
0.00075 16396 20002 119113 42.007 0.911 42507
0.000875 16397 20001 118607 42.006 0.907 35558
0.001 16398 20002 116096 42.005 0.889 29686
0.001125 16399 20001 116629 42.006 0.892 25524
0.00125 16400 20002 117894 42.005 0.902 22332
0.001375 16402 20004 118712 42.004 0.908 18893
0.0015 16403 20001 116621 42.005 0.892 15022
0.001625 16404 20001 116907 42.005 0.894 12394
0.00175 16405 20003 117618 42.005 0.9 10704
0.001875 16406 20002 117226 42.006 0.897 9074
0.002 16407 20001 116208 42.006 0.889 7939
0.002125 16408 20001 117278 42.003 0.897 7095
0.00225 16409 20003 117147 42.004 0.896 5809
0.002375 16410 20002 117590 42.007 0.9 4819
0.0025 16411 20002 118764 42.007 0.909 3972
0.002625 16412 20002 117912 42.005 0.902 3013
0.00275 16413 20002 116826 42.004 0.894 1994
0.002875 16414 20002 118308 42.008 0.905 1228
0.003 16415 20003 116421 42.006 0.891 719
0.003125 16416 20001 117946 42.006 0.902 495
0.00325 16417 20004 118188 42.004 0.904 358
0.003375 16418 20002 117105 42.006 0.896 239
0.0035 16419 20001 117392 42.004 0.898 216
0.003625 16420 20004 117609 42.003 0.9 179
0.00375 16421 20002 117039 42.005 0.896 139
0.003875 16422 20006 118083 42.006 0.904 140
0.004 16423 20001 118568 42.005 0.907 103
0.004125 16424 20001 116647 42.007 0.893 93
0.00425 16425 20001 117641 42.004 0.9 91
0.004375 16426 20004 118394 42.004 0.906 87
0.0045 16427 20003 118141 42.006 0.904 51
0.004625 16428 20001 117239 42.004 0.897 74
0.00475 16429 20005 117413 42.005 0.899 63
0.004875 16430 20003 118278 42.004 0.905 34
0.005 16431 20006 117234 42.005 0.897 41

#S 29  qscan  0.17 0.27 50 -160000
#D Wed Sep 22 20:16:16 2004
#M 160000  (Monitor)
#G0 0 0 0 0 0 1 0 0 0 0 0 0
#G1 6.28318 6.28318 6.28318 90 90 90 1 1 1 90 90 90 2 0 0 2 1 0 24 12 0 0 0 0 24 3.23 100 0 0 0 1.23984 1.45863
#G2 0
#Q 0.00499733 0 0
#P0 0.0565 0.02825 0 0 0 -23 0.84347368 0.12095238
#P1 7.997206 -29.999365 23.799848 0 60.999492 10.94175 252.94576 10.94175
#P2 -67.000254 -18.001016 37.5 3.479807 2.6301753 2.8956058 -0.81978664 -43.999873
#P3 2.000254 6.7995936 11.000127 35.819787 0.5 0.5 0.5 0.5
#P4 -11.1895 18.93736 
#N 7
#L Q  Epoch  Monitor  Ion 3  Temperature  Seconds  Detector
0.17 16446 160012 929398 42.005 7.116 1649
0.172 16454 160004 929995 42.006 7.12 1650
0.174 16461 160007 931848 42.004 7.14 1601
0.176 16469 160010 932924 42.003 7.144 1554
0.178 16476 160012 932388 42.005 7.142 1674
0.18 16484 160014 929120 42.006 7.117 1604
0.182 16491 160015 932806 42.006 7.145 1619
0.184 16499 160006 936046 42.005 7.171 1652
0.186 16506 160008 932534 42.005 7.144 1643
0.188 16514 160014 931966 42.005 7.14 1639
0.19 16521 160007 928198 42.007 7.112 1624
0.192 16529 160009 930899 42.005 7.134 1792
0.194 16536 160004 932680 42.004 7.147 1840
0.196 16544 160010 934491 42.004 7.163 1848
0.198 16551 160015 929715 42.004 7.127 1834
0.2 16559 160013 933663 42.002 7.156 1892
0.202 16566 160011 932729 42.004 7.151 2083
0.204 16574 160011 929927 42.004 7.13 2067
0.206 16581 160010 931036 42.004 7.139 2154
0.208 16589 160007 932431 42.007 7.15 2351
0.21 16596 160004 929222 42.005 7.126 2438
0.212 16604 160008 935348 42.005 7.175 2682
0.214 16611 160004 932301 42.005 7.151 2695
0.216 16619 160011 933227 42.006 7.159 2874
0.218 16626 160013 934713 42.006 7.171 3218
0.22 16634 160013 931988 42.004 7.152 3179
0.222 16641 160011 929797 42.007 7.135 3279
0.224 16649 160008 930496 42.005 7.141 3238
0.226 16656 160009 930760 42.004 7.143 3154
0.228 16664 160008 934868 42.007 7.175 3119
0.23 16672 160014 932773 42.007 7.161 3022
0.232 16679 160011 934543 42.005 7.175 2804
0.234 16687 160005 932031 42.005 7.156 2831
0.236 16694 160015 934480 42.005 7.176 2668
0.238 16702 160009 929789 42.005 7.14 2586
0.24 16709 160009 932002 42.008 7.157 2485
0.242 16717 160007 934650 42.007 7.179 2420
0.244 16724 160009 941215 42.004 7.229 2368
0.246 16732 160010 932724 42.007 7.164 2369
0.248 16739 160014 933387 42.008 7.17 2327
0.25 16747 160005 930661 42.008 7.149 2181
0.252 16754 160012 932974 42.005 7.169 2217
0.254 16762 160011 931249 42.007 7.155 2179
0.256 16769 160009 929711 42.005 7.144 2117
0.258 16777 160014 931584 42.005 7.158 2052
0.26 16785 160007 934909 42.008 7.184 1971
0.262 16792 160012 933879 42.005 7.178 1965
0.264 16800 160009 931806 42.005 7.162 1918
0.266 16807 160010 934611 42.006 7.184 1915
0.268 16815 160014 931643 42.006 7.162 1860
0.27 16822 160005 931102 42.005 7.158 1888

#S 30  qscan  0.208 0.228 80 -40000
#D Wed Sep 22 20:22:44 2004
#M 40000  (Monitor)
#G0 0 0 0 0 0 1 0 0 0 0 0 0
#G1 6.28318 6.28318 6.28318 90 90 90 1 1 1 90 90 90 2 0 0 2 1 0 24 12 0 0 0 0 24 3.23 100 0 0 0 1.23984 1.45863
#G2 0
#Q 0.270001 0 0
#P0 3.053 1.5265 0 0 0 -23 0.84347368 0.12095238
#P1 7.997206 -29.999365 23.799848 0 60.999492 10.94175 252.94576 10.94175
#P2 -67.000254 -18.001016 37.5 3.479807 2.6301753 2.8956058 -0.81978664 -43.999873
#P3 2.000254 6.7995936 11.000127 35.819787 0.5 0.5 0.5 0.5
#P4 -11.1895 18.93736 
#N 7
#L Q  Epoch  Monitor  Ion 3  Temperature  Seconds  Detector
0.208 16827 40002 233841 42.003 1.798 547
0.20825 16829 40005 233278 42.005 1.793 637
0.2085 16831 40001 231655 42.006 1.781 593
0.20875 16833 40008 231869 42.005 1.783 565
0.209 16835 40002 234970 42.007 1.806 614
0.20925 16837 40004 235078 42.005 1.807 591
0.2095 16839 40006 232259 42.005 1.785 624
0.20975 16841 40004 233134 42.004 1.792 623
0.21 16843 40001 232923 42.004 1.791 628
0.21025 16845 40002 232992 42.004 1.791 661
0.2105 16847 40006 233559 42.004 1.796 632
0.21075 16849 40001 234452 42.005 1.803 627
0.211 16851 40005 234796 42.007 1.805 627
0.21125 16853 40006 232904 42.005 1.791 660
0.2115 16855 40005 234179 42.005 1.801 672
0.21175 16856 40002 232988 42.006 1.792 661
0.212 16858 40002 234426 42.004 1.803 636
0.21225 16860 40002 232306 42.004 1.787 667
0.2125 16862 40003 231719 42.007 1.782 652
0.21275 16864 40003 233277 42.006 1.794 692
0.213 16866 40005 233821 42.007 1.798 684
0.21325 16868 40004 234165 42.006 1.801 645
0.2135 16870 40004 234112 42.007 1.804 679
0.21375 16872 40004 232078 42.005 1.785 693
0.214 16874 40005 232908 42.005 1.791 766
0.21425 16876 40001 232528 42.005 1.788 752
0.2145 16878 40001 233426 42.005 1.795 713
0.21475 16880 40003 230544 42.007 1.773 734
0.215 16882 40001 233663 42.006 1.797 755
0.21525 16884 40002 233296 42.005 1.794 764
0.2155 16886 40003 233693 42.005 1.797 743
0.21575 16888 40002 235379 42.004 1.81 760
0.216 16890 40006 232736 42.005 1.79 813
0.21625 16892 40002 231913 42.007 1.784 767
0.2165 16894 40001 234270 42.008 1.802 764
0.21675 16896 40003 232646 42.007 1.79 782
0.217 16898 40004 232060 42.005 1.785 756
0.21725 16900 40006 232449 42.007 1.788 779
0.2175 16901 40001 233693 42.005 1.798 780
0.21775 16903 40001 234565 42.008 1.804 803
0.218 16905 40002 233763 42.006 1.798 856
0.21825 16907 40004 237103 42.007 1.824 853
0.2185 16909 40002 232808 42.007 1.791 909
0.21875 16911 40011 231559 42.007 1.782 815
0.219 16913 40003 233775 42.005 1.799 864
0.21925 16915 40002 232724 42.007 1.79 895
0.2195 16917 40004 236302 42.006 1.818 864
0.21975 16919 40001 233807 42.006 1.799 804
0.22 16921 40005 230690 42.007 1.775 854
0.22025 16923 40003 231381 42.007 1.78 816
0.2205 16925 40003 231422 42.007 1.781 897
0.22075 16927 40003 235264 42.005 1.81 869
0.221 16929 40007 232782 42.007 1.796 859
0.22125 16931 40002 232829 42.009 1.791 829
0.2215 16933 40002 231036 42.008 1.777 844
0.22175 16935 40001 232188 42.005 1.786 840
0.222 16937 40002 232356 42.007 1.788 789
0.22225 16939 40002 232809 42.007 1.791 878
0.2225 16941 40003 235356 42.007 1.811 874
0.22275 16943 40007 231112 42.006 1.778 783
0.223 16945 40005 231933 42.006 1.785 829
0.22325 16947 40002 232340 42.006 1.788 829
0.2235 16949 40002 233882 42.006 1.8 845
0.22375 16951 40001 234823 42.007 1.807 850
0.224 16952 40003 232728 42.007 1.791 817
0.22425 16954 40001 233228 42.007 1.795 839
0.2245 16956 40004 233844 42.005 1.799 806
0.22475 16958 40002 232528 42.007 1.789 818
0.225 16960 40003 233145 42.007 1.794 838
0.22525 16962 40002 232955 42.008 1.793 750
0.2255 16964 40005 230101 42.009 1.771 746
0.22575 16966 40002 233857 42.006 1.8 836
0.226 16968 40003 232956 42.008 1.793 830
0.22625 16970 40003 233240 42.007 1.795 811
0.2265 16972 40003 235154 42.008 1.81 819
0.22675 16974 40004 234271 42.007 1.803 800
0.227 16976 40005 233692 42.005 1.799 812
0.22725 16978 40002 231810 42.006 1.784 757
0.2275 16980 40003 234285 42.007 1.803 832
0.22775 16982 40003 232677 42.005 1.791 797
0.228 16984 40003 233466 42.009 1.797 808
#C Wed Sep 22 21:42:48 2004.  do /u/clegg/macros/batch.mac.

#S 31  ascan  tabv -1.15653 2.84347  20 1
#D Wed Sep 22 21:42:48 2004
#T 1  (Seconds)
#G0 0 0 0 0 0 1 0 0 0 0 0 0
#G1 6.28318 6.28318 6.28318 90 90 90 1 1 1 90 90 90 2 0 0 2 1 0 24 12 0 0 0 0 24 3.23 100 0 0 0 1.23984 1.45863
#G2 0
#Q 0.228001 0 0
#P0 2.578 1.289 0 0 5.5 -23 0.84347368 0.12095238
#P1 7.997206 -29.999365 23.799848 0 60.999492 10.94175 252.94576 10.94175
#P2 -67.000254 -18.001016 37.5 3.479807 2.6301753 2.8956058 -0.81978664 -43.999873
#P3 2.000254 6.7995936 11.000127 35.819787 0.5 0.5 0.5 0.5
#P4 -11.1895 18.93736 
#N 10
#L Tab Vert  H  K  L  Epoch  Seconds  Ion 3  Temperature  Detector  Monitor
-1.1565263 0.228001 0 0 21651 1 138346 42.003 0 768
-0.95652632 0.228001 0 0 21654 1 138505 42.004 0 853
-0.75652632 0.228001 0 0 21657 1 138641 42.004 0 1085
-0.55652632 0.228001 0 0 21661 1 138734 42.005 0 1357
-0.35652632 0.228001 0 0 21664 1 138804 42.003 0 1791
-0.15652632 0.228001 0 0 21667 1 138869 42.002 0 3336
0.043473684 0.228001 0 0 21670 1 138912 42.005 0 7165
0.24347368 0.228001 0 0 21673 1 138924 42.005 0 13143
0.44347368 0.228001 0 0 21676 1 138907 42.004 0 19138
0.64347368 0.228001 0 0 21680 1 138907 42.004 0 23006
0.84347368 0.228001 0 0 21683 1 138879 42.003 0 22990
1.0434737 0.228001 0 0 21686 1 138843 42.003 0 19922
1.2434737 0.228001 0 0 21689 1 138795 42.002 0 14156
1.4434737 0.228001 0 0 21692 1 137038 42.004 0 8388
1.6434737 0.228001 0 0 21695 1 138703 42.004 0 4346
1.8434737 0.228001 0 0 21699 1 138643 42.006 0 2519
2.0434737 0.228001 0 0 21702 1 138543 42.005 0 1824
2.2434737 0.228001 0 0 21705 1 138458 42.007 0 1224
2.4434737 0.228001 0 0 21708 1 138383 42.004 0 824
2.6434737 0.228001 0 0 21711 1 138258 42.005 0 655
2.8434737 0.228001 0 0 21714 1 138230 42.005 0 509

#S 32  qscan  -0.005 0.005 80 -20000
#D Wed Sep 22 21:44:47 2004
#M 20000  (Monitor)
#G0 0 0 0 0 0 1 0 0 0 0 0 0
#G1 6.28318 6.28318 6.28318 90 90 90 1 1 1 90 90 90 2 0 0 2 1 0 24 12 0 0 0 0 24 3.23 100 0 0 0 1.23984 1.45863
#G2 0
#Q 0.228001 0 0
#P0 2.578 1.289 0 0 5 -23 0.762 0.12095238
#P1 7.997206 -29.999365 23.799848 0 60.999492 10.94175 252.94576 10.94175
#P2 -67.000254 -18.001016 37.5 3.479807 2.6301753 2.8956058 -0.81978664 -43.999873
#P3 2.000254 6.7995936 11.000127 35.819787 0.5 0.5 0.5 0.5
#P4 -11.1895 18.93736 
#N 7
#L Q  Epoch  Monitor  Ion 3  Temperature  Seconds  Detector
-0.005 21753 20002 119024 42.005 0.857 113
-0.004875 21754 20001 119373 42.006 0.859 100
-0.00475 21755 20001 119453 42.004 0.86 125
-0.004625 21756 20003 118401 42.004 0.852 125
-0.0045 21757 20002 119129 42.004 0.857 115
-0.004375 21758 20002 119941 42.005 0.863 127
-0.00425 21759 20003 119166 42.005 0.858 150
-0.004125 21760 20003 120053 42.005 0.864 160
-0.004 21761 20001 120604 42.003 0.868 152
-0.003875 21762 20002 119934 42.002 0.863 172
-0.00375 21763 20001 120088 42.003 0.864 199
-0.003625 21764 20001 119197 42.005 0.858 187
-0.0035 21765 20001 120097 42.005 0.865 201
-0.003375 21766 20002 120180 42.003 0.865 223
-0.00325 21767 20006 118587 42.004 0.854 254
-0.003125 21768 20002 119116 42.004 0.857 255
-0.003 21769 20001 119264 42.002 0.858 277
-0.002875 21769 20001 118810 42.005 0.855 305
-0.00275 21770 20002 118486 42.003 0.853 372
-0.002625 21771 20002 119336 42.004 0.859 379
-0.0025 21772 20003 120033 42.004 0.864 452
-0.002375 21773 20002 120562 42.005 0.868 495
-0.00225 21775 20003 120990 42.006 0.871 566
-0.002125 21776 20001 120497 42.002 0.867 637
-0.002 21777 20002 119339 42.005 0.859 724
-0.001875 21777 20003 119529 42.004 0.86 881
-0.00175 21779 20005 120429 42.004 0.867 1042
-0.001625 21779 20001 119286 42.003 0.859 1391
-0.0015 21780 20003 120210 42.005 0.865 1855
-0.001375 21781 20001 119876 42.004 0.863 2563
-0.00125 21782 20003 119360 42.004 0.859 3945
-0.001125 21783 20002 120527 42.003 0.868 6341
-0.001 21784 20001 119203 42.006 0.858 12020
-0.000875 21785 20002 120078 42.003 0.864 25559
-0.00075 21786 20002 119321 42.002 0.859 47746
-0.000625 21787 20002 121088 42.003 0.872 75858
-0.0005 21788 20001 119004 42.004 0.857 98379
-0.000375 21789 20003 119460 42.004 0.86 113231
-0.00025 21790 20003 119152 42.004 0.858 119728
-0.000125 21791 20002 121893 42.004 0.877 120267
0 21792 20001 119632 42.004 0.861 108940
0.000125 21793 20002 119274 42.004 0.859 92843
0.00025 21794 20002 121165 42.005 0.872 77278
0.000375 21795 20002 118511 42.004 0.853 62314
0.0005 21796 20003 120607 42.005 0.868 50839
0.000625 21797 20002 119585 42.004 0.861 40511
0.00075 21798 20002 118761 42.003 0.855 34240
0.000875 21799 20002 119950 42.003 0.864 29104
0.001 21800 20001 120211 42.004 0.865 25273
0.001125 21801 20001 118357 42.003 0.852 20778
0.00125 21802 20002 119879 42.003 0.863 17366
0.001375 21803 20004 120670 42.006 0.869 14533
0.0015 21804 20001 119862 42.005 0.863 11934
0.001625 21805 20001 119873 42.005 0.863 9963
0.00175 21806 20001 119615 42.004 0.861 8853
0.001875 21807 20001 119632 42.004 0.861 7708
0.002 21808 20001 120443 42.004 0.867 6618
0.002125 21809 20001 119323 42.005 0.859 5700
0.00225 21810 20003 120756 42.004 0.877 4669
0.002375 21811 20002 120724 42.004 0.869 3593
0.0025 21812 20002 120557 42.004 0.868 2670
0.002625 21813 20001 119516 42.004 0.861 1773
0.00275 21814 20001 119008 42.005 0.857 1084
0.002875 21815 20003 119156 42.005 0.858 715
0.003 21816 20002 121327 42.004 0.874 471
0.003125 21817 20001 119942 42.005 0.864 324
0.00325 21818 20003 118343 42.004 0.852 255
0.003375 21819 20003 121217 42.003 0.873 201
0.0035 21820 20003 120519 42.005 0.868 159
0.003625 21821 20002 119690 42.004 0.862 133
0.00375 21822 20002 119693 42.003 0.862 140
0.003875 21823 20001 120216 42.003 0.866 133
0.004 21824 20001 119751 42.003 0.862 75
0.004125 21825 20001 120112 42.004 0.865 97
0.00425 21826 20002 120438 42.003 0.867 69
0.004375 21827 20002 118694 42.003 0.855 70
0.0045 21828 20002 120764 42.004 0.87 61
0.004625 21829 20002 117880 42.005 0.849 75
0.00475 21830 20002 120434 42.005 0.867 57
0.004875 21831 20004 118492 42.004 0.853 59
0.005 21832 20004 119257 42.003 0.859 39
#C Wed Sep 22 21:53:07 2004.  do /u/clegg/macros/batch.mac.

#S 33  ascan  tabv -1.238 2.762  20 1
#D Wed Sep 22 21:53:07 2004
#T 1  (Seconds)
#G0 0 0 0 0 0 1 0 0 0 0 0 0
#G1 6.28318 6.28318 6.28318 90 90 90 1 1 1 90 90 90 2 0 0 2 1 0 24 12 0 0 0 0 24 3.23 100 0 0 0 1.23984 1.45863
#G2 0
#Q 0.00499733 0 0
#P0 0.0565 0.02825 0 0 5.5 -23 0.762 0.12095238
#P1 7.997206 -29.999365 23.799848 0 60.999492 10.94175 252.94576 10.94175
#P2 -67.000254 -18.001016 37.5 3.479807 2.6301753 2.8956058 -0.81978664 -43.999873
#P3 2.000254 6.7995936 11.000127 35.819787 0.5 0.5 0.5 0.5
#P4 -11.1895 18.93736 
#N 10
#L Tab Vert  H  K  L  Epoch  Seconds  Ion 3  Temperature  Detector  Monitor
-1.238 0.00499733 0 0 22269 1 137849 42.004 0 724
-1.038 0.00499733 0 0 22273 1 138031 42.003 0 796
-0.838 0.00499733 0 0 22276 1 138170 42.004 0 965
-0.638 0.00499733 0 0 22279 1 138277 42.006 0 1207
-0.438 0.00499733 0 0 22282 1 138409 42.005 0 1548
-0.238 0.00499733 0 0 22285 1 138432 42.006 0 2582
-0.038 0.00499733 0 0 22288 1 138455 42.004 0 5211
0.162 0.00499733 0 0 22292 1 138479 42.005 0 10477
0.362 0.00499733 0 0 22295 1 138467 42.005 0 17071
0.562 0.00499733 0 0 22298 1 138457 42.005 0 21734
0.762 0.00499733 0 0 22301 1 138435 42.004 0 23271
0.962 0.00499733 0 0 22304 1 138399 42.006 0 21547
1.162 0.00499733 0 0 22308 1 138362 42.004 0 16893
1.362 0.00499733 0 0 22311 1 138305 42.005 0 10691
1.562 0.00499733 0 0 22314 1 138242 42.004 0 5551
1.762 0.00499733 0 0 22317 1 138184 42.006 0 3170
1.962 0.00499733 0 0 22320 1 138104 42.006 0 2068
2.162 0.00499733 0 0 22323 1 138013 42.003 0 1321
2.362 0.00499733 0 0 22327 1 137933 42.005 0 976
2.562 0.00499733 0 0 22330 1 137821 42.006 0 700
2.762 0.00499733 0 0 22333 1 137719 42.004 0 603

#S 34  qscan  -0.005 0.005 80 -20000
#D Wed Sep 22 21:55:00 2004
#M 20000  (Monitor)
#G0 0 0 0 0 0 1 0 0 0 0 0 0
#G1 6.28318 6.28318 6.28318 90 90 90 1 1 1 90 90 90 2 0 0 2 1 0 24 12 0 0 0 0 24 3.23 100 0 0 0 1.23984 1.45863
#G2 0
#Q 0.00499733 0 0
#P0 0.0565 0.02825 0 0 5 -23 0.76431579 0.12095238
#P1 7.997206 -29.999365 23.799848 0 60.999492 10.94175 252.94576 10.94175
#P2 -67.000254 -18.001016 37.5 3.479807 2.6301753 2.8956058 -0.81978664 -43.999873
#P3 2.000254 6.7995936 11.000127 35.819787 0.5 0.5 0.5 0.5
#P4 -11.1895 18.93736 
#N 7
#L Q  Epoch  Monitor  Ion 3  Temperature  Seconds  Detector
-0.005 22361 20004 119600 42.003 0.864 122
-0.004875 22362 20001 118756 42.004 0.858 106
-0.00475 22363 20001 120404 42.005 0.87 123
-0.004625 22364 20001 119227 42.007 0.861 116
-0.0045 22365 20003 117035 42.005 0.845 139
-0.004375 22366 20003 118735 42.004 0.858 131
-0.00425 22367 20001 118700 42.006 0.857 141
-0.004125 22368 20003 119218 42.005 0.861 168
-0.004 22369 20001 118885 42.005 0.859 164
-0.003875 22370 20001 118570 42.004 0.856 177
-0.00375 22371 20001 119008 42.006 0.86 164
-0.003625 22372 20002 118816 42.004 0.858 219
-0.0035 22373 20003 117671 42.003 0.85 219
-0.003375 22374 20001 118242 42.005 0.854 233
-0.00325 22375 20001 119683 42.004 0.865 227
-0.003125 22376 20002 119020 42.005 0.86 281
-0.003 22377 20002 119179 42.005 0.861 297
-0.002875 22378 20004 119798 42.004 0.865 344
-0.00275 22379 20002 119787 42.006 0.865 371
-0.002625 22380 20005 118855 42.007 0.859 368
-0.0025 22381 20001 118809 42.006 0.858 469
-0.002375 22382 20001 120571 42.004 0.871 493
-0.00225 22383 20002 118949 42.005 0.859 558
-0.002125 22384 20001 119949 42.004 0.867 639
-0.002 22385 20001 119943 42.006 0.867 734
-0.001875 22386 20002 119113 42.004 0.86 914
-0.00175 22387 20002 118751 42.006 0.858 1062
-0.001625 22388 20001 118695 42.005 0.857 1353
-0.0015 22389 20001 119856 42.003 0.866 1732
-0.001375 22390 20001 119355 42.005 0.862 2549
-0.00125 22391 20003 121870 42.003 0.88 4005
-0.001125 22392 20001 118775 42.005 0.858 6162
-0.001 22393 20004 118822 42.005 0.858 11612
-0.000875 22394 20003 119178 42.005 0.861 24801
-0.00075 22395 20001 119209 42.004 0.861 47281
-0.000625 22396 20001 118910 42.006 0.859 73165
-0.0005 22397 20001 119822 42.003 0.866 98469
-0.000375 22398 20001 118227 42.005 0.854 110480
-0.00025 22399 20004 120413 42.005 0.877 115366
-0.000125 22400 20001 119618 42.004 0.864 117466
0 22401 20002 117465 42.005 0.849 106919
0.000125 22402 20003 117692 42.004 0.85 93223
0.00025 22403 20002 118903 42.005 0.859 76352
0.000375 22404 20002 119151 42.006 0.861 63133
0.0005 22405 20003 120462 42.004 0.87 52011
0.000625 22406 20001 119125 42.005 0.861 41403
0.00075 22407 20004 120116 42.005 0.868 35524
0.000875 22408 20003 119933 42.006 0.866 30034
0.001 22409 20002 119882 42.005 0.866 25791
0.001125 22410 20001 119074 42.005 0.86 21599
0.00125 22411 20001 118526 42.004 0.856 17762
0.001375 22412 20002 119965 42.005 0.867 14903
0.0015 22413 20001 120515 42.005 0.871 12356
0.001625 22414 20003 118035 42.004 0.853 10426
0.00175 22415 20001 119197 42.006 0.861 9150
0.001875 22416 20002 118342 42.006 0.855 8046
0.002 22417 20001 117861 42.006 0.851 6785
0.002125 22418 20003 119935 42.006 0.867 5877
0.00225 22419 20003 119321 42.004 0.862 4903
0.002375 22420 20001 118277 42.004 0.855 3775
0.0025 22421 20001 119469 42.007 0.863 2834
0.002625 22422 20002 118836 42.006 0.859 1980
0.00275 22423 20001 119275 42.005 0.862 1204
0.002875 22424 20002 119389 42.003 0.863 749
0.003 22425 20002 120215 42.004 0.869 534
0.003125 22426 20003 118841 42.007 0.859 373
0.00325 22427 20001 117430 42.004 0.849 258
0.003375 22428 20003 120192 42.005 0.868 229
0.0035 22429 20003 117302 42.006 0.848 170
0.003625 22430 20002 120325 42.006 0.87 149
0.00375 22431 20003 118304 42.005 0.855 111
0.003875 22432 20001 119798 42.005 0.866 106
0.004 22433 20002 119680 42.004 0.865 90
0.004125 22434 20001 118156 42.007 0.854 80
0.00425 22435 20003 119948 42.004 0.867 64
0.004375 22436 20003 119021 42.004 0.86 75
0.0045 22437 20003 117947 42.005 0.852 49
0.004625 22438 20001 120157 42.005 0.869 54
0.00475 22439 20002 119905 42.004 0.866 61
0.004875 22440 20002 118760 42.007 0.858 57
0.005 22441 20001 119204 42.004 0.861 47

#S 35  qscan  0.218 0.1 0.8 40
#D Wed Sep 22 22:11:25 2004
#M 4000  (Monitor)
#G0 0 0 0 0 0 1 0 0 0 0 0 0
#G1 6.28318 6.28318 6.28318 90 90 90 1 1 1 90 90 90 2 0 0 2 1 0 24 12 0 0 0 0 24 3.23 100 0 0 0 1.23984 1.45863
#G2 0
#Q 0.00499733 0 0
#P0 0.0565 0.02825 0 0 0 -23 0.76431579 0.12095238
#P1 7.997206 -29.999365 23.799848 0 60.999492 10.94175 252.94576 10.94175
#P2 -67.000254 -18.001016 37.5 3.479807 2.6301753 2.8956058 -0.81978664 -43.999873
#P3 2.000254 6.7995936 11.000127 35.819787 0.5 0.5 0.5 0.5
#P4 -11.1895 18.93736 
#N 7
#L Q  Epoch  Monitor  Ion 3  Temperature  Seconds  Detector
0.168 23347 4001 23630 42.006 0.172 38
0.174205 23348 4001 23407 42.004 0.17 33
0.17984 23349 4002 23404 42.007 0.17 39
0.184935 23349 4001 23580 42.004 0.171 44
0.18952 23350 4001 23700 42.004 0.172 43
0.193625 23351 4001 23746 42.005 0.173 44
0.19728 23351 4002 23364 42.004 0.17 38
0.200515 23352 4001 23214 42.005 0.169 60
0.20336 23353 4002 23951 42.006 0.174 49
0.205845 23353 4001 23979 42.006 0.174 45
0.208 23354 4001 23489 42.005 0.171 51
0.209855 23354 4001 23740 42.006 0.173 69
0.21144 23355 4001 23801 42.006 0.173 61
0.212785 23355 4001 24081 42.004 0.175 58
0.21392 23356 4001 22994 42.007 0.167 75
0.214875 23356 4001 23585 42.005 0.171 80
0.21568 23357 4001 23321 42.004 0.17 85
0.216365 23357 4001 22995 42.006 0.167 77
0.21696 23357 4001 23703 42.004 0.172 87
0.217495 23358 4001 23262 42.006 0.169 101
0.218 23358 4001 23757 42.004 0.173 73
0.218505 23358 4001 23830 42.007 0.173 81
0.21904 23359 4002 24150 42.004 0.176 87
0.219635 23359 4001 23799 42.006 0.173 92
0.22032 23360 4001 24137 42.006 0.175 93
0.221125 23360 4001 24018 42.006 0.175 90
0.22208 23361 4001 23999 42.006 0.174 105
0.223215 23361 4001 23452 42.005 0.17 82
0.22456 23361 4002 23068 42.005 0.168 92
0.226145 23362 4001 22717 42.005 0.165 84
0.228 23362 4001 24004 42.004 0.174 80
0.230155 23363 4001 23472 42.007 0.171 77
0.23264 23364 4001 23532 42.006 0.171 75
0.235485 23364 4001 23092 42.006 0.168 57
0.23872 23365 4001 23717 42.007 0.172 76
0.242375 23365 4001 23621 42.005 0.172 61
0.24648 23366 4001 23662 42.006 0.172 66
0.251065 23367 4001 23830 42.004 0.173 52
0.25616 23367 4001 24073 42.005 0.175 66
0.261795 23368 4001 23498 42.005 0.171 41
0.268 23369 4001 24065 42.004 0.175 54
#C Wed Sep 22 22:13:55 2004.  do /u/clegg/macros/qscan.mac.

#S 36  qscan  0.218 0.1 0.8 40
#D Wed Sep 22 22:14:06 2004
#M 40000  (Monitor)
#G0 0 0 0 0 0 1 0 0 0 0 0 0
#G1 6.28318 6.28318 6.28318 90 90 90 1 1 1 90 90 90 2 0 0 2 1 0 24 12 0 0 0 0 24 3.23 100 0 0 0 1.23984 1.45863
#G2 0
#Q 0.268 -4.52444e-08 -2.88821e-07
#P0 3.030375 1.51525 0 0 0 -23 0.76431579 0.12095238
#P1 7.997206 -29.999365 23.799848 0 60.999492 10.94175 252.94576 10.94175
#P2 -67.000254 -18.001016 37.5 3.479807 2.6301753 2.8956058 -0.81978664 -43.999873
#P3 2.000254 6.7995936 11.000127 35.819787 0.5 0.5 0.5 0.5
#P4 -11.1895 18.93736 
#N 7
#L Q  Epoch  Monitor  Ion 3  Temperature  Seconds  Detector
0.168 23509 40003 234654 42.005 1.712 451
0.174205 23512 40006 233945 42.007 1.707 391
0.17984 23514 40001 236925 42.005 1.729 436
0.184935 23516 40002 235792 42.004 1.721 429
0.18952 23519 40001 235615 42.004 1.72 437
0.193625 23521 40002 235196 42.006 1.717 426
0.19728 23523 40008 235238 42.004 1.717 457
0.200515 23525 40001 234537 42.004 1.712 469
0.20336 23527 40002 233115 42.005 1.702 473
0.205845 23529 40004 233967 42.004 1.708 540
0.208 23531 40005 235186 42.004 1.717 571
0.209855 23533 40003 235029 42.005 1.715 609
0.21144 23536 40003 234422 42.006 1.711 633
0.212785 23538 40002 236979 42.004 1.73 686
0.21392 23540 40004 235628 42.006 1.72 711
0.214875 23542 40003 236534 42.004 1.726 700
0.21568 23543 40004 235017 42.005 1.716 731
0.216365 23545 40003 231885 42.006 1.693 764
0.21696 23547 40004 232435 42.004 1.697 829
0.217495 23549 40004 237734 42.006 1.736 787
0.218 23551 40002 232601 42.006 1.698 730
0.218505 23553 40002 233429 42.007 1.704 836
0.21904 23555 40002 232105 42.007 1.694 782
0.219635 23557 40005 234818 42.005 1.714 856
0.22032 23559 40002 233813 42.004 1.707 878
0.221125 23561 40001 236309 42.005 1.725 831
0.22208 23563 40004 236195 42.004 1.724 815
0.223215 23565 40003 234937 42.006 1.715 856
0.22456 23567 40003 232774 42.007 1.7 841
0.226145 23569 40002 233211 42.007 1.703 782
0.228 23571 40001 233737 42.005 1.707 732
0.230155 23573 40002 235434 42.007 1.719 728
0.23264 23575 40003 235042 42.007 1.721 744
0.235485 23577 40002 233397 42.005 1.704 713
0.23872 23579 40006 235278 42.007 1.718 677
0.242375 23582 40004 234886 42.006 1.715 593
0.24648 23584 40003 236099 42.005 1.724 568
0.251065 23586 40004 235481 42.005 1.72 550
0.25616 23588 40002 236897 42.007 1.73 526
0.261795 23591 40002 235785 42.005 1.722 471
0.268 23593 40002 235094 42.006 1.717 466

#S 37  qscan  0.218 0.2 0.8 50
#D Wed Sep 22 22:15:59 2004
#M 40000  (Monitor)
#G0 0 0 0 0 0 1 0 0 0 0 0 0
#G1 6.28318 6.28318 6.28318 90 90 90 1 1 1 90 90 90 2 0 0 2 1 0 24 12 0 0 0 0 24 3.23 100 0 0 0 1.23984 1.45863
#G2 0
#Q 0.268 -4.52444e-08 -2.88821e-07
#P0 3.030375 1.51525 0 0 0 -23 0.76431579 0.12095238
#P1 7.997206 -29.999365 23.799848 0 60.999492 10.94175 252.94576 10.94175
#P2 -67.000254 -18.001016 37.5 3.479807 2.6301753 2.8956058 -0.81978664 -43.999873
#P3 2.000254 6.7995936 11.000127 35.819787 0.5 0.5 0.5 0.5
#P4 -11.1895 18.93736 
#N 7
#L Q  Epoch  Monitor  Ion 3  Temperature  Seconds  Detector
0.118 23624 40002 232729 42.006 1.7 872
0.128021 23627 40004 234432 42.006 1.713 694
0.137305 23629 40003 235124 42.005 1.718 580
0.145882 23632 40005 235908 42.007 1.724 538
0.153784 23634 40005 234270 42.005 1.712 458
0.16104 23636 40003 234708 42.005 1.715 394
0.167682 23639 40002 234560 42.006 1.714 378
0.17374 23641 40002 233594 42.007 1.707 370
0.179245 23643 40002 236298 42.007 1.726 374
0.184228 23646 40003 235253 42.005 1.719 412
0.18872 23648 40002 232350 42.006 1.697 393
0.192751 23650 40005 235810 42.005 1.723 397
0.196351 23652 40005 235692 42.007 1.722 474
0.199553 23654 40003 236013 42.006 1.724 478
0.202385 23656 40004 234728 42.005 1.715 516
0.20488 23658 40002 234688 42.005 1.715 520
0.207068 23661 40005 234228 42.007 1.711 549
0.208979 23663 40004 233201 42.005 1.704 588
0.210644 23665 40002 236630 42.005 1.729 637
0.212094 23667 40002 236009 42.005 1.725 678
0.21336 23669 40006 232652 42.007 1.7 668
0.214472 23671 40004 234057 42.004 1.71 727
0.215462 23673 40005 233209 42.006 1.704 737
0.216359 23675 40005 234517 42.005 1.714 786
0.217195 23677 40003 233287 42.006 1.705 805
0.218 23679 40003 233905 42.006 1.709 809
0.218805 23680 40006 234917 42.004 1.717 861
0.219641 23682 40002 234411 42.005 1.713 895
0.220538 23684 40002 234349 42.005 1.713 831
0.221528 23686 40001 235384 42.004 1.72 841
0.22264 23688 40002 234853 42.006 1.716 838
0.223906 23690 40002 234402 42.006 1.713 854
0.225356 23692 40003 235051 42.004 1.718 791
0.227021 23694 40005 233654 42.005 1.708 790
0.228932 23697 40002 235499 42.006 1.721 812
0.23112 23699 40006 234469 42.004 1.714 719
0.233615 23701 40004 233176 42.004 1.704 710
0.236447 23703 40005 234088 42.006 1.711 677
0.239649 23705 40004 233760 42.006 1.708 580
0.243249 23707 40002 233870 42.007 1.709 596
0.24728 23709 40005 235646 42.006 1.723 605
0.251772 23712 40001 234607 42.005 1.715 531
0.256755 23714 40003 234199 42.004 1.712 513
0.26226 23716 40002 233874 42.007 1.71 505
0.268318 23718 40006 234440 42.005 1.714 442
0.27496 23721 40002 235933 42.004 1.725 434
0.282216 23723 40002 234314 42.005 1.713 435
0.290118 23725 40004 235006 42.004 1.718 367
0.298695 23728 40006 235363 42.005 1.721 390
0.307979 23730 40004 236089 42.004 1.726 402
0.318 23733 40006 236688 42.004 1.73 343
#C Wed Sep 22 22:20:34 2004.  do /u/clegg/macros/qscan.mac.

#S 38  qscan  0.218 0.2 0.8 50
#D Wed Sep 22 22:20:56 2004
#M 40000  (Monitor)
#G0 0 0 0 0 0 1 0 0 0 0 0 0
#G1 6.28318 6.28318 6.28318 90 90 90 1 1 1 90 90 90 2 0 0 2 1 0 24 12 0 0 0 0 24 3.23 100 0 0 0 1.23984 1.45863
#G2 0
#Q 0.317997 -5.36849e-08 -3.42702e-07
#P0 3.595875 1.798 0 0 0 -23 0.76431579 0.12095238
#P1 7.997206 -29.999365 23.799848 0 60.999492 10.94175 252.94576 10.94175
#P2 -67.000254 -18.001016 37.5 3.479807 2.6301753 2.8956058 -0.81978664 -43.999873
#P3 2.000254 6.7995936 11.000127 35.819787 0.5 0.5 0.5 0.5
#P4 -11.1895 18.93736 
#N 7
#L Q  Epoch  Monitor  Ion 3  Temperature  Seconds  Detector
0.118 23922 40003 235640 42.003 1.725 912
0.128021 23925 40006 237574 42.004 1.739 719
0.137305 23927 40007 235535 42.005 1.724 602
0.145882 23929 40002 234502 42.004 1.717 486
0.153784 23932 40003 236223 42.005 1.729 506
0.16104 23934 40004 234457 42.004 1.716 459
0.167682 23937 40002 233415 42.005 1.709 406
0.17374 23939 40003 235335 42.005 1.723 420
0.179245 23941 40004 233741 42.006 1.711 414
0.184228 23943 40003 236595 42.005 1.732 436
0.18872 23946 40003 234774 42.004 1.719 407
0.192751 23948 40003 235702 42.004 1.726 445
0.196351 23950 40005 234638 42.004 1.718 464
0.199553 23952 40004 234257 42.007 1.715 447
0.202385 23954 40003 232746 42.004 1.704 507
0.20488 23956 40005 235233 42.004 1.722 524
0.207068 23958 40004 235827 42.004 1.727 589
0.208979 23960 40005 231970 42.006 1.699 607
0.210644 23963 40004 235499 42.006 1.724 665
0.212094 23965 40002 232873 42.004 1.705 641
0.21336 23967 40002 234538 42.006 1.717 673
0.214472 23969 40003 236290 42.005 1.73 675
0.215462 23971 40002 232458 42.006 1.702 727
0.216359 23972 40001 233483 42.004 1.71 792
0.217195 23974 40004 234904 42.004 1.72 858
0.218 23976 40003 234781 42.004 1.719 837
0.218805 23978 40001 234210 42.004 1.715 853
0.219641 23980 40002 236234 42.005 1.73 866
0.220538 23982 40001 233955 42.005 1.713 851
0.221528 23984 40003 234181 42.005 1.715 838
0.22264 23986 40004 234852 42.005 1.72 867
0.223906 23988 40002 237907 42.005 1.745 887
0.225356 23990 40003 236494 42.005 1.732 772
0.227021 23992 40002 232815 42.005 1.705 777
0.228932 23994 40004 235193 42.007 1.722 799
0.23112 23997 40003 234331 42.004 1.716 775
0.233615 23999 40002 233872 42.007 1.713 719
0.236447 24001 40005 233949 42.005 1.714 663
0.239649 24003 40003 234295 42.006 1.716 654
0.243249 24005 40006 233730 42.004 1.712 639
0.24728 24007 40003 232344 42.007 1.702 559
0.251772 24009 40004 233293 42.006 1.709 538
0.256755 24012 40005 234488 42.007 1.717 539
0.26226 24014 40003 236150 42.006 1.73 462
0.268318 24016 40004 234987 42.005 1.721 480
0.27496 24019 40002 233048 42.004 1.707 406
0.282216 24021 40004 233973 42.006 1.714 428
0.290118 24023 40004 233650 42.006 1.711 359
0.298695 24026 40003 233905 42.004 1.714 375
0.307979 24028 40001 234499 42.005 1.718 366
0.318 24031 40001 235522 42.004 1.725 354
#C Wed Sep 22 22:25:56 2004.  do /u/clegg/macros/night.mac.
#C Wed Sep 22 22:35:56 2004.  do /u/clegg/macros/batch.mac.

#S 39  ascan  tabv -1.23568 2.76432  20 1
#D Wed Sep 22 22:35:56 2004
#T 1  (Seconds)
#G0 0 0 0 0 0 1 0 0 0 0 0 0
#G1 6.28318 6.28318 6.28318 90 90 90 1 1 1 90 90 90 2 0 0 2 1 0 24 12 0 0 0 0 24 3.23 100 0 0 0 1.23984 1.45863
#G2 0
#Q 0.317997 -5.36849e-08 -3.42702e-07
#P0 3.595875 1.798 0 0 5.5 -23 0.76431579 0.12095238
#P1 7.997206 -29.999365 23.799848 0 60.999492 10.94175 252.94576 10.94175
#P2 -67.000254 -18.001016 37.5 3.479807 2.6301753 2.8956058 -0.81978664 -43.999873
#P3 2.000254 6.7995936 11.000127 35.819787 0.5 0.5 0.5 0.5
#P4 -11.1895 18.93736 
#N 10
#L Tab Vert  H  K  L  Epoch  Seconds  Ion 3  Temperature  Detector  Monitor
-1.2356842 0.317997 -5.36849e-08 -3.42702e-07 24839 1 134929 41.512 0 681
-1.0356842 0.317997 -5.36849e-08 -3.42702e-07 24842 1 135094 41.51 0 826
-0.83568421 0.317997 -5.36849e-08 -3.42702e-07 24845 1 135205 41.513 0 936
-0.63568421 0.317997 -5.36849e-08 -3.42702e-07 24848 1 135294 41.511 0 1100
-0.43568421 0.317997 -5.36849e-08 -3.42702e-07 24852 1 135361 41.51 0 1509
-0.23568421 0.317997 -5.36849e-08 -3.42702e-07 24855 1 135408 41.512 0 2292
-0.035684211 0.317997 -5.36849e-08 -3.42702e-07 24858 1 135424 41.512 0 4676
0.16431579 0.317997 -5.36849e-08 -3.42702e-07 24861 1 135445 41.51 0 9715
0.36431579 0.317997 -5.36849e-08 -3.42702e-07 24864 1 135424 41.509 0 16086
0.56431579 0.317997 -5.36849e-08 -3.42702e-07 24867 1 135415 41.51 2 20939
0.76431579 0.317997 -5.36849e-08 -3.42702e-07 24871 1 135421 41.511 0 23299
0.96431579 0.317997 -5.36849e-08 -3.42702e-07 24874 1 135351 41.512 0 21684
1.1643158 0.317997 -5.36849e-08 -3.42702e-07 24877 1 135292 41.509 0 16890
1.3643158 0.317997 -5.36849e-08 -3.42702e-07 24880 1 135236 41.512 0 10864
1.5643158 0.317997 -5.36849e-08 -3.42702e-07 24883 1 135169 41.512 0 5773
1.7643158 0.317997 -5.36849e-08 -3.42702e-07 24886 1 135113 41.512 0 3135
1.9643158 0.317997 -5.36849e-08 -3.42702e-07 24890 1 135027 41.509 0 2124
2.1643158 0.317997 -5.36849e-08 -3.42702e-07 24893 1 134938 41.513 0 1437
2.3643158 0.317997 -5.36849e-08 -3.42702e-07 24896 1 134838 41.512 0 982
2.5643158 0.317997 -5.36849e-08 -3.42702e-07 24899 1 134726 41.512 0 723
2.7643158 0.317997 -5.36849e-08 -3.42702e-07 24902 1 134647 41.51 0 562

#S 40  qscan  -0.005 0.005 80 -20000
#D Wed Sep 22 22:37:50 2004
#M 20000  (Monitor)
#G0 0 0 0 0 0 1 0 0 0 0 0 0
#G1 6.28318 6.28318 6.28318 90 90 90 1 1 1 90 90 90 2 0 0 2 1 0 24 12 0 0 0 0 24 3.23 100 0 0 0 1.23984 1.45863
#G2 0
#Q 0.317997 -5.36849e-08 -3.42702e-07
#P0 3.595875 1.798 0 0 5 -23 0.78168421 0.12095238
#P1 7.997206 -29.999365 23.799848 0 60.999492 10.94175 252.94576 10.94175
#P2 -67.000254 -18.001016 37.5 3.479807 2.6301753 2.8956058 -0.81978664 -43.999873
#P3 2.000254 6.7995936 11.000127 35.819787 0.5 0.5 0.5 0.5
#P4 -11.1895 18.93736 
#N 7
#L Q  Epoch  Monitor  Ion 3  Temperature  Seconds  Detector
-0.005 24938 20002 117064 41.509 0.865 95
-0.004875 24939 20002 117494 41.511 0.868 110
-0.00475 24940 20003 118893 41.51 0.878 123
-0.004625 24941 20001 118025 41.509 0.872 122
-0.0045 24942 20001 117185 41.509 0.866 133
-0.004375 24943 20002 118448 41.511 0.875 133
-0.00425 24944 20002 118312 41.509 0.874 142
-0.004125 24945 20003 117686 41.51 0.869 152
-0.004 24946 20003 117444 41.51 0.867 163
-0.003875 24947 20001 117279 41.51 0.866 159
-0.00375 24948 20002 118575 41.509 0.876 190
-0.003625 24949 20002 117299 41.511 0.866 161
-0.0035 24950 20001 116205 41.509 0.858 196
-0.003375 24951 20001 119508 41.51 0.883 206
-0.00325 24952 20002 117233 41.509 0.866 243
-0.003125 24953 20002 117289 41.51 0.866 272
-0.003 24954 20002 116089 41.511 0.858 273
-0.002875 24955 20003 118373 41.512 0.874 295
-0.00275 24956 20002 117285 41.511 0.866 338
-0.002625 24957 20004 117316 41.509 0.867 404
-0.0025 24958 20001 117565 41.508 0.868 462
-0.002375 24959 20002 117715 41.509 0.87 462
-0.00225 24960 20002 118498 41.508 0.875 542
-0.002125 24961 20003 118407 41.509 0.875 611
-0.002 24962 20002 117166 41.509 0.866 737
-0.001875 24963 20002 118042 41.508 0.872 822
-0.00175 24964 20003 118189 41.51 0.873 1037
-0.001625 24965 20001 117985 41.51 0.872 1224
-0.0015 24966 20002 117532 41.508 0.868 1639
-0.001375 24967 20002 119455 41.508 0.882 2306
-0.00125 24968 20001 118398 41.51 0.875 3532
-0.001125 24969 20002 118907 41.509 0.878 5261
-0.001 24970 20001 117759 41.509 0.87 10213
-0.000875 24971 20002 117161 41.509 0.866 21534
-0.00075 24972 20003 118216 41.508 0.873 42050
-0.000625 24973 20002 117083 41.507 0.865 66882
-0.0005 24974 20003 117915 41.51 0.871 92410
-0.000375 24975 20001 117782 41.508 0.87 106870
-0.00025 24976 20001 117288 41.507 0.866 113571
-0.000125 24977 20001 117346 41.509 0.867 114766
0 24978 20003 117523 41.509 0.868 107997
0.000125 24979 20002 116388 41.508 0.86 95961
0.00025 24980 20002 118697 41.507 0.877 82309
0.000375 24981 20004 117311 41.51 0.867 67575
0.0005 24982 20002 117631 41.508 0.869 55245
0.000625 24983 20005 117433 41.507 0.868 45151
0.00075 24984 20001 117953 41.507 0.871 37871
0.000875 24985 20001 116956 41.509 0.864 32153
0.001 24986 20001 118017 41.508 0.872 27958
0.001125 24987 20001 117048 41.508 0.868 23818
0.00125 24988 20001 117706 41.507 0.87 20334
0.001375 24989 20003 116826 41.507 0.863 16776
0.0015 24990 20002 117958 41.506 0.872 13573
0.001625 24991 20003 117714 41.508 0.87 11526
0.00175 24992 20001 118454 41.507 0.875 10196
0.001875 24993 20003 115941 41.507 0.857 8821
0.002 24994 20004 117704 41.508 0.87 7800
0.002125 24995 20002 117096 41.506 0.865 6737
0.00225 24996 20003 118765 41.509 0.877 5643
0.002375 24997 20003 116517 41.506 0.861 4455
0.0025 24998 20002 117641 41.507 0.869 3691
0.002625 24999 20002 117755 41.506 0.87 2530
0.00275 25000 20002 117331 41.507 0.867 1569
0.002875 25001 20002 119453 41.506 0.883 996
0.003 25002 20004 118691 41.506 0.877 627
0.003125 25003 20001 117447 41.508 0.868 411
0.00325 25004 20003 117346 41.508 0.867 271
0.003375 25005 20003 117295 41.505 0.867 232
0.0035 25006 20004 117033 41.507 0.865 187
0.003625 25007 20001 118227 41.506 0.874 140
0.00375 25008 20004 117731 41.507 0.87 136
0.003875 25009 20001 117942 41.507 0.872 121
0.004 25010 20002 117185 41.507 0.866 106
0.004125 25011 20001 118149 41.506 0.873 96
0.00425 25012 20001 117989 41.507 0.872 88
0.004375 25013 20004 117757 41.508 0.87 75
0.0045 25014 20002 119591 41.506 0.884 69
0.004625 25015 20002 117154 41.507 0.866 56
0.00475 25016 20001 118962 41.506 0.879 76
0.004875 25017 20002 118297 41.507 0.874 59
0.005 25018 20004 118173 41.507 0.873 48

#S 41  qscan  0.218 0.2 0.8 50
#D Wed Sep 22 22:39:23 2004
#M 40000  (Monitor)
#G0 0 0 0 0 0 1 0 0 0 0 0 0
#G1 6.28318 6.28318 6.28318 90 90 90 1 1 1 90 90 90 2 0 0 2 1 0 24 12 0 0 0 0 24 3.23 100 0 0 0 1.23984 1.45863
#G2 0
#Q 0.00499733 0 0
#P0 0.0565 0.02825 0 0 0 -23 0.78168421 0.12095238
#P1 7.997206 -29.999365 23.799848 0 60.999492 10.94175 252.94576 10.94175
#P2 -67.000254 -18.001016 37.5 3.479807 2.6301753 2.8956058 -0.81978664 -43.999873
#P3 2.000254 6.7995936 11.000127 35.819787 0.5 0.5 0.5 0.5
#P4 -11.1895 18.93736 
#N 7
#L Q  Epoch  Monitor  Ion 3  Temperature  Seconds  Detector
0.118 25026 40006 234969 41.507 1.737 911
0.128021 25029 40003 234423 41.504 1.733 732
0.137305 25031 40004 233118 41.505 1.724 538
0.145882 25034 40006 231853 41.505 1.714 499
0.153784 25036 40001 232843 41.506 1.722 454
0.16104 25038 40003 234166 41.504 1.731 418
0.167682 25041 40002 234252 41.507 1.732 417
0.17374 25043 40002 232632 41.504 1.72 408
0.179245 25045 40005 233557 41.505 1.727 417
0.184228 25048 40001 233669 41.506 1.727 419
0.18872 25050 40003 235280 41.504 1.74 431
0.192751 25052 40004 235621 41.507 1.742 414
0.196351 25054 40001 231449 41.505 1.712 444
0.199553 25056 40001 234054 41.505 1.731 478
0.202385 25059 40004 231130 41.503 1.709 494
0.20488 25061 40001 232936 41.506 1.723 495
0.207068 25063 40003 233159 41.507 1.724 571
0.208979 25065 40002 234808 41.505 1.737 578
0.210644 25067 40002 232132 41.507 1.717 635
0.212094 25069 40002 231470 41.504 1.712 708
0.21336 25071 40001 230528 41.507 1.705 672
0.214472 25073 40001 231933 41.505 1.715 757
0.215462 25075 40003 230641 41.505 1.706 829
0.216359 25077 40005 232108 41.506 1.717 857
0.217195 25079 40004 234134 41.505 1.732 886
0.218 25081 40004 232628 41.505 1.721 1125
0.218805 25083 40002 232842 41.505 1.722 2267
0.219641 25085 40003 232984 41.507 1.724 1185
0.220538 25087 40002 233486 41.507 1.727 1034
0.221528 25089 40006 232093 41.507 1.717 988
0.22264 25091 40004 232480 41.506 1.72 936
0.223906 25093 40003 231591 41.506 1.714 907
0.225356 25095 40003 232042 41.507 1.717 900
0.227021 25097 40003 232485 41.506 1.72 813
0.228932 25099 40001 231597 41.506 1.714 826
0.23112 25101 40004 234523 41.505 1.735 763
0.233615 25103 40006 232507 41.506 1.721 730
0.236447 25105 40001 233442 41.505 1.729 683
0.239649 25107 40002 231755 41.507 1.715 627
0.243249 25109 40002 233795 41.507 1.73 591
0.24728 25112 40005 232912 41.506 1.724 589
0.251772 25114 40005 233041 41.506 1.725 539
0.256755 25116 40002 233783 41.505 1.73 512
0.26226 25118 40001 231115 41.507 1.71 480
0.268318 25121 40002 235515 41.506 1.743 436
0.27496 25123 40005 232623 41.505 1.722 421
0.282216 25125 40002 234253 41.506 1.734 442
0.290118 25128 40004 232408 41.504 1.72 367
0.298695 25130 40004 232660 41.507 1.722 369
0.307979 25133 40004 234553 41.506 1.736 374
0.318 25135 40002 233172 41.505 1.726 330
#C Wed Sep 22 22:51:20 2004.  do /u/clegg/macros/batch.mac.

#S 42  ascan  tabv -1.21832 2.78168  20 1
#D Wed Sep 22 22:51:21 2004
#T 1  (Seconds)
#G0 0 0 0 0 0 1 0 0 0 0 0 0
#G1 6.28318 6.28318 6.28318 90 90 90 1 1 1 90 90 90 2 0 0 2 1 0 24 12 0 0 0 0 24 3.23 100 0 0 0 1.23984 1.45863
#G2 0
#Q 0.317997 -5.36849e-08 -3.42702e-07
#P0 3.595875 1.798 0 0 5.5 -23 0.78168421 0.12095238
#P1 7.997206 -29.999365 23.799848 0 60.999492 10.94175 252.94576 10.94175
#P2 -67.000254 -18.001016 37.5 3.479807 2.6301753 2.8956058 -0.81978664 -43.999873
#P3 2.000254 6.7995936 11.000127 35.819787 0.5 0.5 0.5 0.5
#P4 -11.1895 18.93736 
#N 10
#L Tab Vert  H  K  L  Epoch  Seconds  Ion 3  Temperature  Detector  Monitor
-1.2183158 0.317997 -5.36849e-08 -3.42702e-07 25763 1 133750 41.013 0 686
-1.0183158 0.317997 -5.36849e-08 -3.42702e-07 25766 1 133891 41.013 0 821
-0.81831579 0.317997 -5.36849e-08 -3.42702e-07 25770 1 134009 41.013 0 939
-0.61831579 0.317997 -5.36849e-08 -3.42702e-07 25773 1 134077 41.01 0 1148
-0.41831579 0.317997 -5.36849e-08 -3.42702e-07 25776 1 134158 41.013 0 1540
-0.21831579 0.317997 -5.36849e-08 -3.42702e-07 25779 1 134201 41.012 0 2361
-0.018315789 0.317997 -5.36849e-08 -3.42702e-07 25782 1 134219 41.012 0 5003
0.18168421 0.317997 -5.36849e-08 -3.42702e-07 25786 1 134221 41.012 0 9970
0.38168421 0.317997 -5.36849e-08 -3.42702e-07 25789 1 134205 41.012 0 16377
0.58168421 0.317997 -5.36849e-08 -3.42702e-07 25792 1 134191 41.011 0 21407
0.78168421 0.317997 -5.36849e-08 -3.42702e-07 25795 1 134144 41.011 0 22801
0.98168421 0.317997 -5.36849e-08 -3.42702e-07 25798 1 134115 41.014 0 21421
1.1816842 0.317997 -5.36849e-08 -3.42702e-07 25801 1 134062 41.011 0 16545
1.3816842 0.317997 -5.36849e-08 -3.42702e-07 25805 1 134016 41.012 0 10618
1.5816842 0.317997 -5.36849e-08 -3.42702e-07 25808 1 133954 41.011 0 5645
1.7816842 0.317997 -5.36849e-08 -3.42702e-07 25811 1 133819 41.013 0 3069
1.9816842 0.317997 -5.36849e-08 -3.42702e-07 25814 1 133762 41.01 0 2058
2.1816842 0.317997 -5.36849e-08 -3.42702e-07 25817 1 133687 41.011 0 1432
2.3816842 0.317997 -5.36849e-08 -3.42702e-07 25820 1 133582 41.013 0 1002
2.5816842 0.317997 -5.36849e-08 -3.42702e-07 25824 1 133490 41.011 0 724
2.7816842 0.317997 -5.36849e-08 -3.42702e-07 25827 1 133413 41.013 0 558

#S 43  qscan  -0.005 0.005 80 -20000
#D Wed Sep 22 22:53:14 2004
#M 20000  (Monitor)
#G0 0 0 0 0 0 1 0 0 0 0 0 0
#G1 6.28318 6.28318 6.28318 90 90 90 1 1 1 90 90 90 2 0 0 2 1 0 24 12 0 0 0 0 24 3.23 100 0 0 0 1.23984 1.45863
#G2 0
#Q 0.317997 -5.36849e-08 -3.42702e-07
#P0 3.595875 1.798 0 0 5 -23 0.79084211 0.12095238
#P1 7.997206 -29.999365 23.799848 0 60.999492 10.94175 252.94576 10.94175
#P2 -67.000254 -18.001016 37.5 3.479807 2.6301753 2.8956058 -0.81978664 -43.999873
#P3 2.000254 6.7995936 11.000127 35.819787 0.5 0.5 0.5 0.5
#P4 -11.1895 18.93736 
#N 7
#L Q  Epoch  Monitor  Ion 3  Temperature  Seconds  Detector
-0.005 25862 20002 118217 41.01 0.881 115
-0.004875 25863 20004 116250 41.01 0.867 116
-0.00475 25864 20004 118885 41.01 0.886 135
-0.004625 25865 20002 117329 41.01 0.875 127
-0.0045 25866 20001 117461 41.01 0.876 122
-0.004375 25867 20003 118584 41.007 0.884 133
-0.00425 25868 20003 117395 41.007 0.875 159
-0.004125 25869 20003 119224 41.007 0.889 168
-0.004 25870 20003 117962 41.01 0.88 160
-0.003875 25871 20001 117164 41.009 0.874 183
-0.00375 25872 20002 117811 41.011 0.878 177
-0.003625 25873 20001 117537 41.008 0.876 219
-0.0035 25874 20002 118090 41.007 0.88 179
-0.003375 25875 20002 116725 41.008 0.87 222
-0.00325 25876 20001 117533 41.009 0.876 255
-0.003125 25877 20001 116577 41.007 0.869 296
-0.003 25878 20001 116506 41.007 0.869 288
-0.002875 25879 20001 117926 41.01 0.879 313
-0.00275 25880 20003 117137 41.009 0.873 355
-0.002625 25881 20001 118023 41.01 0.88 414
-0.0025 25882 20001 117417 41.009 0.875 432
-0.002375 25883 20003 117759 41.01 0.878 475
-0.00225 25884 20003 116689 41.009 0.87 510
-0.002125 25885 20002 117510 41.01 0.876 659
-0.002 25886 20003 118602 41.007 0.884 710
-0.001875 25887 20002 116379 41.01 0.868 823
-0.00175 25888 20002 116970 41.007 0.872 945
-0.001625 25889 20003 118927 41.01 0.887 1269
-0.0015 25890 20004 117664 41.009 0.877 1581
-0.001375 25891 20002 118010 41.009 0.88 2189
-0.00125 25892 20002 116275 41.007 0.867 3185
-0.001125 25893 20002 118644 41.008 0.885 5213
-0.001 25894 20001 118311 41.009 0.882 9796
-0.000875 25895 20003 117790 41.011 0.878 20627
-0.00075 25896 20001 117892 41.008 0.879 40524
-0.000625 25897 20001 116618 41.007 0.87 65315
-0.0005 25898 20001 117579 41.008 0.877 91171
-0.000375 25899 20002 118684 41.009 0.885 105704
-0.00025 25900 20002 117059 41.007 0.873 112534
-0.000125 25901 20005 118700 41.007 0.885 115934
0 25903 20001 117981 41.009 0.88 109357
0.000125 25904 20002 118339 41.009 0.882 98870
0.00025 25905 20003 118562 41.009 0.884 83768
0.000375 25906 20002 118630 41.007 0.885 69716
0.0005 25907 20004 116975 41.008 0.872 56818
0.000625 25908 20002 118892 41.007 0.887 46873
0.00075 25909 20002 117773 41.007 0.878 38824
0.000875 25910 20004 117112 41.008 0.873 32740
0.001 25911 20001 117540 41.009 0.877 27994
0.001125 25912 20002 117336 41.007 0.875 24163
0.00125 25913 20002 117825 41.006 0.879 20642
0.001375 25914 20002 116019 41.008 0.865 16888
0.0015 25915 20002 117857 41.008 0.879 13945
0.001625 25916 20002 118653 41.009 0.885 11944
0.00175 25917 20003 116829 41.008 0.871 10335
0.001875 25918 20001 117229 41.005 0.874 8998
0.002 25919 20001 117818 41.005 0.879 7874
0.002125 25920 20001 115709 41.007 0.863 6823
0.00225 25921 20003 115597 41.008 0.862 5709
0.002375 25922 20002 117855 41.008 0.879 4734
0.0025 25923 20001 117560 41.006 0.877 3662
0.002625 25924 20002 118282 41.008 0.882 2781
0.00275 25925 20001 117350 41.006 0.875 1593
0.002875 25926 20002 117295 41.009 0.875 1028
0.003 25927 20005 118468 41.008 0.884 641
0.003125 25928 20002 117831 41.007 0.879 433
0.00325 25929 20002 119149 41.005 0.893 273
0.003375 25930 20001 119039 41.007 0.888 230
0.0035 25931 20003 117414 41.007 0.876 173
0.003625 25932 20003 117662 41.008 0.877 156
0.00375 25933 20001 117520 41.008 0.877 127
0.003875 25934 20002 118777 41.006 0.886 114
0.004 25935 20002 117689 41.007 0.878 119
0.004125 25936 20003 117989 41.007 0.88 109
0.00425 25937 20003 117793 41.005 0.879 81
0.004375 25938 20002 116544 41.007 0.869 74
0.0045 25939 20002 116904 41.006 0.872 76
0.004625 25940 20001 116295 41.006 0.868 51
0.00475 25941 20002 117946 41.007 0.88 48
0.004875 25942 20002 117705 41.007 0.878 55
0.005 25943 20001 115680 41.005 0.863 52

#S 44  qscan  0.218 0.2 0.8 50
#D Wed Sep 22 22:54:48 2004
#M 40000  (Monitor)
#G0 0 0 0 0 0 1 0 0 0 0 0 0
#G1 6.28318 6.28318 6.28318 90 90 90 1 1 1 90 90 90 2 0 0 2 1 0 24 12 0 0 0 0 24 3.23 100 0 0 0 1.23984 1.45863
#G2 0
#Q 0.00499733 0 0
#P0 0.0565 0.02825 0 0 0 -23 0.79084211 0.12095238
#P1 7.997206 -29.999365 23.799848 0 60.999492 10.94175 252.94576 10.94175
#P2 -67.000254 -18.001016 37.5 3.479807 2.6301753 2.8956058 -0.81978664 -43.999873
#P3 2.000254 6.7995936 11.000127 35.819787 0.5 0.5 0.5 0.5
#P4 -11.1895 18.93736 
#N 7
#L Q  Epoch  Monitor  Ion 3  Temperature  Seconds  Detector
0.118 25951 40009 231874 41.005 1.73 853
0.128021 25954 40002 232827 41.005 1.737 654
0.137305 25956 40002 231303 41.004 1.726 616
0.145882 25959 40002 233914 41.004 1.746 504
0.153784 25961 40002 232065 41.005 1.732 460
0.16104 25963 40005 232546 41.004 1.736 409
0.167682 25966 40003 235470 41.004 1.757 374
0.17374 25968 40003 231381 41.005 1.727 363
0.179245 25970 40003 232399 41.005 1.734 342
0.184228 25972 40003 231740 41.004 1.73 374
0.18872 25975 40001 231065 41.007 1.725 364
0.192751 25977 40004 231007 41.004 1.724 405
0.196351 25979 40002 232294 41.003 1.734 378
0.199553 25981 40003 233699 41.006 1.744 401
0.202385 25983 40006 233409 41.004 1.742 350
0.20488 25986 40002 232823 41.005 1.738 408
0.207068 25988 40005 234189 41.007 1.754 457
0.208979 25990 40002 233996 41.006 1.747 447
0.210644 25992 40004 232958 41.006 1.739 515
0.212094 25994 40001 233223 41.004 1.741 536
0.21336 25996 40003 232733 41.004 1.737 658
0.214472 25998 40003 233566 41.006 1.743 660
0.215462 26000 40004 233223 41.004 1.741 698
0.216359 26002 40004 231271 41.005 1.726 839
0.217195 26004 40006 234655 41.005 1.752 988
0.218 26006 40003 231977 41.005 1.732 3233
0.218805 26008 40004 233821 41.005 1.746 12896
0.219641 26010 40003 231620 41.007 1.729 4086
0.220538 26012 40002 234195 41.003 1.748 1893
0.221528 26014 40004 232818 41.003 1.738 1065
0.22264 26016 40001 230875 41.005 1.724 917
0.223906 26018 40004 232956 41.005 1.739 848
0.225356 26020 40003 231992 41.006 1.732 834
0.227021 26022 40004 231786 41.004 1.731 737
0.228932 26024 40007 231317 41.004 1.727 697
0.23112 26026 40003 231280 41.005 1.727 671
0.233615 26028 40004 232330 41.006 1.735 625
0.236447 26031 40003 230748 41.004 1.723 591
0.239649 26033 40006 230466 41.003 1.721 605
0.243249 26035 40004 232257 41.005 1.734 533
0.24728 26037 40004 234194 41.003 1.749 490
0.251772 26039 40005 232175 41.005 1.734 525
0.256755 26042 40002 232277 41.004 1.735 475
0.26226 26044 40003 232681 41.002 1.738 434
0.268318 26046 40004 234597 41.005 1.752 443
0.27496 26049 40002 232179 41.003 1.734 414
0.282216 26051 40002 234731 41.005 1.753 393
0.290118 26053 40003 231607 41.005 1.73 375
0.298695 26056 40003 234282 41.004 1.75 317
0.307979 26058 40002 232362 41.005 1.736 309
0.318 26061 40004 234361 41.006 1.75 296
#C Wed Sep 22 23:06:46 2004.  do /u/clegg/macros/batch.mac.

#S 45  ascan  tabv -1.20916 2.79084  20 1
#D Wed Sep 22 23:06:46 2004
#T 1  (Seconds)
#G0 0 0 0 0 0 1 0 0 0 0 0 0
#G1 6.28318 6.28318 6.28318 90 90 90 1 1 1 90 90 90 2 0 0 2 1 0 24 12 0 0 0 0 24 3.23 100 0 0 0 1.23984 1.45863
#G2 0
#Q 0.317997 -5.36849e-08 -3.42702e-07
#P0 3.595875 1.798 0 0 5.5 -23 0.79084211 0.12095238
#P1 7.997206 -29.999365 23.799848 0 60.999492 10.94175 252.94576 10.94175
#P2 -67.000254 -18.001016 37.5 3.479807 2.6301753 2.8956058 -0.81978664 -43.999873
#P3 2.000254 6.7995936 11.000127 35.819787 0.5 0.5 0.5 0.5
#P4 -11.1895 18.93736 
#N 10
#L Tab Vert  H  K  L  Epoch  Seconds  Ion 3  Temperature  Detector  Monitor
-1.2091579 0.317997 -5.36849e-08 -3.42702e-07 26689 1 132626 40.511 0 749
-1.0091579 0.317997 -5.36849e-08 -3.42702e-07 26692 1 132761 40.512 0 797
-0.80915789 0.317997 -5.36849e-08 -3.42702e-07 26695 1 132866 40.511 0 880
-0.60915789 0.317997 -5.36849e-08 -3.42702e-07 26698 1 132927 40.51 0 1146
-0.40915789 0.317997 -5.36849e-08 -3.42702e-07 26702 1 132978 40.513 0 1504
-0.20915789 0.317997 -5.36849e-08 -3.42702e-07 26705 1 133030 40.51 0 2377
-0.0091578947 0.317997 -5.36849e-08 -3.42702e-07 26708 1 133043 40.51 0 4824
0.19084211 0.317997 -5.36849e-08 -3.42702e-07 26711 1 133035 40.51 0 10068
0.39084211 0.317997 -5.36849e-08 -3.42702e-07 26714 1 133017 40.512 0 16472
0.59084211 0.317997 -5.36849e-08 -3.42702e-07 26717 1 133001 40.511 0 20999
0.79084211 0.317997 -5.36849e-08 -3.42702e-07 26721 1 132959 40.513 0 22631
0.99084211 0.317997 -5.36849e-08 -3.42702e-07 26724 1 132914 40.511 0 21510
1.1908421 0.317997 -5.36849e-08 -3.42702e-07 26727 1 132864 40.512 0 16488
1.3908421 0.317997 -5.36849e-08 -3.42702e-07 26730 1 132805 40.512 0 10265
1.5908421 0.317997 -5.36849e-08 -3.42702e-07 26733 1 132734 40.512 0 5378
1.7908421 0.317997 -5.36849e-08 -3.42702e-07 26737 1 132666 40.511 0 2966
1.9908421 0.317997 -5.36849e-08 -3.42702e-07 26740 1 132579 40.513 0 1939
2.1908421 0.317997 -5.36849e-08 -3.42702e-07 26743 1 132480 40.513 0 1423
2.3908421 0.317997 -5.36849e-08 -3.42702e-07 26746 1 132367 40.512 0 1033
2.5908421 0.317997 -5.36849e-08 -3.42702e-07 26749 1 132265 40.51 0 747
2.7908421 0.317997 -5.36849e-08 -3.42702e-07 26752 1 131636 40.513 0 506

#S 46  qscan  -0.005 0.005 80 -20000
#D Wed Sep 22 23:08:39 2004
#M 20000  (Monitor)
#G0 0 0 0 0 0 1 0 0 0 0 0 0
#G1 6.28318 6.28318 6.28318 90 90 90 1 1 1 90 90 90 2 0 0 2 1 0 24 12 0 0 0 0 24 3.23 100 0 0 0 1.23984 1.45863
#G2 0
#Q 0.317997 -5.36849e-08 -3.42702e-07
#P0 3.595875 1.798 0 0 5 -23 0.79347368 0.12095238
#P1 7.997206 -29.999365 23.799848 0 60.999492 10.94175 252.94576 10.94175
#P2 -67.000254 -18.001016 37.5 3.479807 2.6301753 2.8956058 -0.81978664 -43.999873
#P3 2.000254 6.7995936 11.000127 35.819787 0.5 0.5 0.5 0.5
#P4 -11.1895 18.93736 
#N 7
#L Q  Epoch  Monitor  Ion 3  Temperature  Seconds  Detector
-0.005 26788 20003 117033 40.509 0.88 121
-0.004875 26789 20002 117629 40.51 0.885 110
-0.00475 26790 20001 117798 40.509 0.886 136
-0.004625 26791 20001 117297 40.513 0.882 106
-0.0045 26792 20001 117600 40.512 0.885 138
-0.004375 26793 20003 117184 40.511 0.881 113
-0.00425 26794 20002 117086 40.511 0.881 134
-0.004125 26795 20001 118150 40.511 0.889 172
-0.004 26796 20004 119922 40.51 0.902 184
-0.003875 26797 20002 116162 40.508 0.874 182
-0.00375 26798 20004 117254 40.511 0.882 184
-0.003625 26799 20003 116729 40.509 0.878 223
-0.0035 26800 20003 116104 40.51 0.873 206
-0.003375 26801 20001 117716 40.511 0.885 186
-0.00325 26802 20001 118258 40.511 0.89 252
-0.003125 26803 20002 118957 40.511 0.895 249
-0.003 26804 20002 115967 40.51 0.872 284
-0.002875 26805 20001 118888 40.508 0.894 323
-0.00275 26806 20004 115708 40.51 0.87 340
-0.002625 26807 20001 118639 40.508 0.892 394
-0.0025 26808 20002 117241 40.509 0.882 396
-0.002375 26809 20005 117314 40.51 0.883 487
-0.00225 26810 20001 118947 40.509 0.895 514
-0.002125 26811 20001 116955 40.511 0.881 620
-0.002 26812 20002 116635 40.51 0.877 627
-0.001875 26813 20003 117136 40.51 0.881 805
-0.00175 26814 20003 119187 40.509 0.897 963
-0.001625 26815 20002 117109 40.509 0.881 1173
-0.0015 26816 20003 117194 40.511 0.882 1582
-0.001375 26817 20001 117083 40.507 0.881 2267
-0.00125 26818 20001 118061 40.509 0.888 3377
-0.001125 26819 20002 117420 40.509 0.883 5196
-0.001 26820 20003 117551 40.507 0.884 9787
-0.000875 26821 20002 117887 40.51 0.887 20381
-0.00075 26822 20003 118792 40.51 0.894 40660
-0.000625 26823 20001 117227 40.508 0.882 66399
-0.0005 26824 20002 117614 40.51 0.885 90610
-0.000375 26825 20001 117565 40.509 0.885 104184
-0.00025 26826 20002 117566 40.508 0.885 112614
-0.000125 26827 20003 117778 40.509 0.886 114364
0 26828 20005 116677 40.509 0.878 108216
0.000125 26829 20004 119159 40.508 0.897 99207
0.00025 26830 20001 118073 40.509 0.888 83623
0.000375 26831 20003 117917 40.51 0.887 70063
0.0005 26832 20001 116598 40.507 0.877 56790
0.000625 26833 20001 116786 40.508 0.879 46919
0.00075 26834 20002 118117 40.509 0.889 39711
0.000875 26835 20002 116703 40.511 0.878 32896
0.001 26836 20002 117542 40.51 0.884 29094
0.001125 26838 20001 118035 40.509 0.888 24384
0.00125 26839 20003 118488 40.51 0.892 20840
0.001375 26840 20002 118280 40.506 0.89 17755
0.0015 26841 20008 117951 40.509 0.888 14449
0.001625 26842 20001 117211 40.508 0.882 12001
0.00175 26843 20001 117294 40.509 0.883 10324
0.001875 26844 20002 116150 40.508 0.874 9249
0.002 26845 20002 117688 40.506 0.886 8075
0.002125 26846 20002 117835 40.505 0.887 6938
0.00225 26847 20003 117187 40.508 0.882 5717
0.002375 26848 20002 116374 40.508 0.876 4711
0.0025 26849 20001 117577 40.506 0.885 3846
0.002625 26850 20002 117065 40.506 0.881 2665
0.00275 26851 20001 118745 40.509 0.894 1664
0.002875 26852 20001 118981 40.508 0.896 1037
0.003 26853 20003 116972 40.509 0.88 615
0.003125 26854 20001 116967 40.509 0.88 424
0.00325 26855 20002 116930 40.507 0.88 327
0.003375 26856 20003 117476 40.508 0.884 241
0.0035 26857 20001 116455 40.508 0.877 189
0.003625 26858 20003 118775 40.506 0.894 145
0.00375 26859 20001 117714 40.507 0.886 124
0.003875 26860 20003 117235 40.507 0.882 111
0.004 26861 20002 116206 40.507 0.875 116
0.004125 26862 20002 117238 40.505 0.882 107
0.00425 26863 20002 116809 40.508 0.879 87
0.004375 26864 20002 116824 40.509 0.879 77
0.0045 26865 20001 119062 40.508 0.896 61
0.004625 26866 20006 118391 40.508 0.891 57
0.00475 26867 20001 117630 40.508 0.886 63
0.004875 26868 20001 117780 40.506 0.887 63
0.005 26869 20001 116705 40.507 0.879 40

#S 47  qscan  0.218 0.2 0.8 50
#D Wed Sep 22 23:10:14 2004
#M 40000  (Monitor)
#G0 0 0 0 0 0 1 0 0 0 0 0 0
#G1 6.28318 6.28318 6.28318 90 90 90 1 1 1 90 90 90 2 0 0 2 1 0 24 12 0 0 0 0 24 3.23 100 0 0 0 1.23984 1.45863
#G2 0
#Q 0.00499733 0 0
#P0 0.0565 0.02825 0 0 0 -23 0.79347368 0.12095238
#P1 7.997206 -29.999365 23.799848 0 60.999492 10.94175 252.94576 10.94175
#P2 -67.000254 -18.001016 37.5 3.479807 2.6301753 2.8956058 -0.81978664 -43.999873
#P3 2.000254 6.7995936 11.000127 35.819787 0.5 0.5 0.5 0.5
#P4 -11.1895 18.93736 
#N 7
#L Q  Epoch  Monitor  Ion 3  Temperature  Seconds  Detector
0.118 26877 40004 232752 40.508 1.753 880
0.128021 26880 40005 230390 40.506 1.735 655
0.137305 26882 40005 231972 40.505 1.747 565
0.145882 26885 40003 233035 40.507 1.755 523
0.153784 26887 40006 233453 40.505 1.758 469
0.16104 26889 40003 232207 40.508 1.749 405
0.167682 26892 40002 231605 40.505 1.744 408
0.17374 26894 40006 230905 40.506 1.739 373
0.179245 26896 40002 231535 40.507 1.744 393
0.184228 26899 40001 233441 40.506 1.758 372
0.18872 26901 40002 233199 40.504 1.757 385
0.192751 26903 40002 231545 40.504 1.744 368
0.196351 26905 40001 232384 40.504 1.751 337
0.199553 26908 40003 231845 40.504 1.746 342
0.202385 26910 40002 232395 40.505 1.751 383
0.20488 26912 40003 232416 40.506 1.751 410
0.207068 26914 40003 233253 40.504 1.757 477
0.208979 26916 40004 233659 40.504 1.76 493
0.210644 26918 40004 230217 40.505 1.734 484
0.212094 26920 40003 232859 40.503 1.754 497
0.21336 26922 40005 232346 40.503 1.751 546
0.214472 26924 40003 232823 40.503 1.754 601
0.215462 26926 40005 232433 40.505 1.751 640
0.216359 26928 40002 232929 40.504 1.756 779
0.217195 26930 40002 231590 40.503 1.745 1009
0.218 26932 40006 231730 40.506 1.746 3416
0.218805 26934 40002 231524 40.506 1.744 17255
0.219641 26936 40003 234135 40.505 1.764 5846
0.220538 26938 40004 230642 40.504 1.738 2356
0.221528 26940 40002 233826 40.503 1.762 1048
0.22264 26942 40005 233910 40.504 1.763 936
0.223906 26945 40005 235045 40.506 1.771 894
0.225356 26947 40003 232297 40.505 1.75 830
0.227021 26949 40001 231282 40.506 1.743 702
0.228932 26951 40004 232324 40.505 1.751 686
0.23112 26953 40002 231103 40.505 1.741 656
0.233615 26955 40003 231429 40.505 1.744 638
0.236447 26957 40002 232430 40.503 1.751 654
0.239649 26959 40004 232899 40.503 1.755 511
0.243249 26962 40002 231728 40.505 1.746 501
0.24728 26964 40005 229482 40.502 1.729 467
0.251772 26966 40002 234057 40.502 1.764 497
0.256755 26968 40003 231990 40.503 1.748 482
0.26226 26971 40003 231822 40.505 1.747 469
0.268318 26973 40002 231972 40.506 1.748 408
0.27496 26975 40001 231597 40.503 1.745 395
0.282216 26978 40002 233423 40.504 1.759 372
0.290118 26980 40004 231476 40.503 1.745 369
0.298695 26983 40003 233041 40.504 1.756 320
0.307979 26985 40003 232070 40.505 1.749 330
0.318 26988 40002 236105 40.504 1.785 289
#C Wed Sep 22 23:22:13 2004.  do /u/clegg/macros/batch.mac.

#S 48  ascan  tabv -1.20653 2.79347  20 1
#D Wed Sep 22 23:22:13 2004
#T 1  (Seconds)
#G0 0 0 0 0 0 1 0 0 0 0 0 0
#G1 6.28318 6.28318 6.28318 90 90 90 1 1 1 90 90 90 2 0 0 2 1 0 24 12 0 0 0 0 24 3.23 100 0 0 0 1.23984 1.45863
#G2 0
#Q 0.317997 -5.36849e-08 -3.42702e-07
#P0 3.595875 1.798 0 0 5.5 -23 0.79347368 0.12095238
#P1 7.997206 -29.999365 23.799848 0 60.999492 10.94175 252.94576 10.94175
#P2 -67.000254 -18.001016 37.5 3.479807 2.6301753 2.8956058 -0.81978664 -43.999873
#P3 2.000254 6.7995936 11.000127 35.819787 0.5 0.5 0.5 0.5
#P4 -11.1895 18.93736 
#N 10
#L Tab Vert  H  K  L  Epoch  Seconds  Ion 3  Temperature  Detector  Monitor
-1.2065263 0.317997 -5.36849e-08 -3.42702e-07 27616 1 131511 40.011 0 698
-1.0065263 0.317997 -5.36849e-08 -3.42702e-07 27619 1 131635 40.013 0 832
-0.80652632 0.317997 -5.36849e-08 -3.42702e-07 27622 1 131740 40.012 0 951
-0.60652632 0.317997 -5.36849e-08 -3.42702e-07 27625 1 131817 40.011 0 1097
-0.40652632 0.317997 -5.36849e-08 -3.42702e-07 27628 1 131863 40.012 0 1404
-0.20652632 0.317997 -5.36849e-08 -3.42702e-07 27632 1 131895 40.01 0 2250
-0.0065263158 0.317997 -5.36849e-08 -3.42702e-07 27635 1 131849 40.011 0 4650
0.19347368 0.317997 -5.36849e-08 -3.42702e-07 27638 1 131904 40.012 0 9681
0.39347368 0.317997 -5.36849e-08 -3.42702e-07 27641 1 131867 40.012 0 15944
0.59347368 0.317997 -5.36849e-08 -3.42702e-07 27644 1 131859 40.011 0 20754
0.79347368 0.317997 -5.36849e-08 -3.42702e-07 27647 1 131821 40.013 0 22614
0.99347368 0.317997 -5.36849e-08 -3.42702e-07 27651 1 131775 40.011 0 21056
1.1934737 0.317997 -5.36849e-08 -3.42702e-07 27654 1 131718 40.011 0 16987
1.3934737 0.317997 -5.36849e-08 -3.42702e-07 27657 1 131653 40.013 0 10235
1.5934737 0.317997 -5.36849e-08 -3.42702e-07 27660 1 131584 40.014 0 5490
1.7934737 0.317997 -5.36849e-08 -3.42702e-07 27663 1 131510 40.012 0 3005
1.9934737 0.317997 -5.36849e-08 -3.42702e-07 27666 1 131412 40.013 0 1973
2.1934737 0.317997 -5.36849e-08 -3.42702e-07 27670 1 131322 40.012 0 1348
2.3934737 0.317997 -5.36849e-08 -3.42702e-07 27673 1 131238 40.013 0 994
2.5934737 0.317997 -5.36849e-08 -3.42702e-07 27676 1 131136 40.011 0 713
2.7934737 0.317997 -5.36849e-08 -3.42702e-07 27679 1 131064 40.013 0 463

#S 49  qscan  -0.005 0.005 80 -20000
#D Wed Sep 22 23:24:06 2004
#M 20000  (Monitor)
#G0 0 0 0 0 0 1 0 0 0 0 0 0
#G1 6.28318 6.28318 6.28318 90 90 90 1 1 1 90 90 90 2 0 0 2 1 0 24 12 0 0 0 0 24 3.23 100 0 0 0 1.23984 1.45863
#G2 0
#Q 0.317997 -5.36849e-08 -3.42702e-07
#P0 3.595875 1.798 0 0 5 -23 0.80357895 0.12095238
#P1 7.997206 -29.999365 23.799848 0 60.999492 10.94175 252.94576 10.94175
#P2 -67.000254 -18.001016 37.5 3.479807 2.6301753 2.8956058 -0.81978664 -43.999873
#P3 2.000254 6.7995936 11.000127 35.819787 0.5 0.5 0.5 0.5
#P4 -11.1895 18.93736 
#N 7
#L Q  Epoch  Monitor  Ion 3  Temperature  Seconds  Detector
-0.005 27714 20006 116279 40.012 0.882 135
-0.004875 27715 20001 117217 40.01 0.889 113
-0.00475 27716 20001 116287 40.009 0.882 112
-0.004625 27717 20003 116997 40.011 0.888 106
-0.0045 27719 20002 117875 40.011 0.895 132
-0.004375 27720 20005 116900 40.011 0.887 135
-0.00425 27721 20001 118868 40.011 0.902 136
-0.004125 27722 20002 115802 40.009 0.879 154
-0.004 27723 20001 118906 40.011 0.902 158
-0.003875 27724 20002 116968 40.011 0.888 161
-0.00375 27725 20001 115531 40.011 0.877 183
-0.003625 27726 20002 118809 40.009 0.902 176
-0.0035 27727 20001 117272 40.011 0.89 197
-0.003375 27728 20004 118108 40.009 0.896 204
-0.00325 27729 20001 117028 40.01 0.888 257
-0.003125 27730 20001 115925 40.009 0.88 253
-0.003 27731 20003 117929 40.009 0.895 251
-0.002875 27732 20002 118027 40.009 0.896 295
-0.00275 27733 20001 117991 40.009 0.896 325
-0.002625 27734 20002 117253 40.009 0.89 334
-0.0025 27735 20004 116195 40.009 0.882 389
-0.002375 27736 20003 117164 40.01 0.889 485
-0.00225 27737 20002 116363 40.009 0.883 537
-0.002125 27738 20004 117236 40.009 0.89 591
-0.002 27739 20002 116032 40.009 0.881 678
-0.001875 27740 20002 117111 40.007 0.889 782
-0.00175 27741 20002 116525 40.011 0.884 993
-0.001625 27742 20001 117672 40.01 0.893 1197
-0.0015 27743 20005 116719 40.01 0.886 1597
-0.001375 27744 20004 116949 40.011 0.888 2184
-0.00125 27745 20005 117072 40.01 0.889 3260
-0.001125 27746 20003 116626 40.008 0.885 5122
-0.001 27747 20001 116862 40.008 0.887 9643
-0.000875 27748 20005 115703 40.008 0.878 20291
-0.00075 27749 20004 117721 40.01 0.894 40539
-0.000625 27750 20001 118302 40.008 0.898 66166
-0.0005 27751 20002 116452 40.009 0.884 88856
-0.000375 27752 20002 116125 40.009 0.883 102641
-0.00025 27753 20004 116517 40.008 0.885 111511
-0.000125 27754 20001 117409 40.009 0.891 112506
0 27755 20001 117189 40.009 0.89 107859
0.000125 27756 20004 118821 40.007 0.902 98888
0.00025 27757 20003 116883 40.009 0.887 82696
0.000375 27758 20001 117168 40.011 0.89 69797
0.0005 27759 20002 118390 40.01 0.899 58606
0.000625 27760 20001 116851 40.008 0.887 46988
0.00075 27761 20002 117721 40.009 0.894 40480
0.000875 27763 20001 116968 40.009 0.888 33791
0.001 27764 20004 116389 40.009 0.884 28903
0.001125 27765 20003 117854 40.005 0.895 25034
0.00125 27766 20001 116689 40.008 0.886 20873
0.001375 27767 20002 117436 40.009 0.892 17749
0.0015 27768 20001 118632 40.009 0.901 14667
0.001625 27769 20002 117183 40.008 0.89 12293
0.00175 27770 20002 118072 40.008 0.897 10493
0.001875 27771 20002 118101 40.007 0.897 9301
0.002 27772 20002 117073 40.007 0.889 8010
0.002125 27773 20005 117042 40.009 0.889 7092
0.00225 27774 20004 116674 40.007 0.886 5924
0.002375 27775 20001 116328 40.008 0.883 4869
0.0025 27776 20001 115789 40.006 0.879 3794
0.002625 27777 20001 118135 40.008 0.897 2830
0.00275 27778 20001 119363 40.01 0.906 1819
0.002875 27779 20002 116614 40.006 0.886 1087
0.003 27780 20002 117941 40.008 0.896 737
0.003125 27781 20002 116873 40.007 0.888 411
0.00325 27782 20003 117664 40.009 0.894 365
0.003375 27783 20001 116193 40.006 0.882 231
0.0035 27784 20003 117389 40.005 0.892 216
0.003625 27785 20004 116827 40.008 0.887 158
0.00375 27786 20004 118204 40.008 0.898 151
0.003875 27787 20004 116973 40.006 0.888 110
0.004 27788 20001 117400 40.008 0.892 105
0.004125 27789 20002 117870 40.008 0.895 111
0.00425 27790 20003 116758 40.006 0.887 78
0.004375 27791 20002 116240 40.008 0.883 70
0.0045 27792 20001 117592 40.008 0.893 83
0.004625 27793 20002 117189 40.008 0.89 62
0.00475 27794 20002 118008 40.008 0.896 58
0.004875 27795 20002 118405 40.008 0.899 64
0.005 27796 20004 118679 40.007 0.901 39

#S 50  qscan  0.218 0.2 0.8 50
#D Wed Sep 22 23:25:41 2004
#M 40000  (Monitor)
#G0 0 0 0 0 0 1 0 0 0 0 0 0
#G1 6.28318 6.28318 6.28318 90 90 90 1 1 1 90 90 90 2 0 0 2 1 0 24 12 0 0 0 0 24 3.23 100 0 0 0 1.23984 1.45863
#G2 0
#Q 0.00499733 0 0
#P0 0.0565 0.02825 0 0 0 -23 0.80357895 0.12095238
#P1 7.997206 -29.999365 23.799848 0 60.999492 10.94175 252.94576 10.94175
#P2 -67.000254 -18.001016 37.5 3.479807 2.6301753 2.8956058 -0.81978664 -43.999873
#P3 2.000254 6.7995936 11.000127 35.819787 0.5 0.5 0.5 0.5
#P4 -11.1895 18.93736 
#N 7
#L Q  Epoch  Monitor  Ion 3  Temperature  Seconds  Detector
0.118 27805 40003 232412 40.008 1.766 836
0.128021 27807 40004 231907 40.007 1.762 698
0.137305 27810 40010 232079 40.009 1.763 592
0.145882 27812 40004 232731 40.008 1.774 488
0.153784 27815 40002 232620 40.006 1.767 477
0.16104 27817 40007 231086 40.005 1.756 386
0.167682 27819 40002 231742 40.006 1.761 386
0.17374 27822 40003 233601 40.005 1.775 390
0.179245 27824 40003 232799 40.008 1.769 327
0.184228 27826 40003 232400 40.006 1.766 336
0.18872 27828 40004 231718 40.006 1.761 376
0.192751 27831 40008 232062 40.004 1.764 374
0.196351 27833 40003 233499 40.008 1.775 351
0.199553 27835 40003 232529 40.005 1.767 405
0.202385 27837 40004 230972 40.007 1.755 366
0.20488 27839 40006 232189 40.005 1.765 434
0.207068 27842 40003 231895 40.006 1.762 436
0.208979 27844 40004 232656 40.005 1.768 469
0.210644 27846 40003 233326 40.007 1.773 518
0.212094 27848 40001 233920 40.005 1.778 514
0.21336 27850 40001 230961 40.007 1.756 517
0.214472 27852 40003 233805 40.008 1.777 578
0.215462 27854 40003 229946 40.004 1.748 635
0.216359 27856 40003 233825 40.006 1.777 793
0.217195 27858 40003 231362 40.006 1.759 997
0.218 27860 40002 231516 40.006 1.76 3101
0.218805 27862 40005 231657 40.005 1.761 19545
0.219641 27864 40008 231526 40.008 1.76 6844
0.220538 27866 40002 232264 40.007 1.766 2566
0.221528 27868 40003 233069 40.005 1.772 1080
0.22264 27870 40004 232242 40.005 1.766 948
0.223906 27872 40001 233253 40.005 1.773 801
0.225356 27874 40002 231991 40.004 1.764 737
0.227021 27876 40005 231362 40.004 1.759 728
0.228932 27879 40003 232153 40.006 1.765 681
0.23112 27881 40004 231701 40.005 1.762 705
0.233615 27883 40005 231597 40.006 1.761 580
0.236447 27885 40003 231846 40.008 1.763 599
0.239649 27887 40004 231019 40.007 1.757 546
0.243249 27889 40005 232306 40.006 1.766 520
0.24728 27892 40003 233181 40.007 1.773 511
0.251772 27894 40002 234018 40.007 1.78 493
0.256755 27896 40004 231165 40.005 1.758 453
0.26226 27899 40002 233665 40.003 1.777 411
0.268318 27901 40004 234828 40.007 1.786 422
0.27496 27903 40003 231140 40.004 1.758 372
0.282216 27906 40004 233420 40.006 1.775 376
0.290118 27908 40002 232253 40.004 1.766 398
0.298695 27911 40005 232578 40.004 1.769 321
0.307979 27913 40004 231599 40.006 1.761 324
0.318 27916 40004 234240 40.005 1.781 323
#C Wed Sep 22 23:37:41 2004.  do /u/clegg/macros/batch.mac.

#S 51  ascan  tabv -1.19642 2.80358  20 1
#D Wed Sep 22 23:37:41 2004
#T 1  (Seconds)
#G0 0 0 0 0 0 1 0 0 0 0 0 0
#G1 6.28318 6.28318 6.28318 90 90 90 1 1 1 90 90 90 2 0 0 2 1 0 24 12 0 0 0 0 24 3.23 100 0 0 0 1.23984 1.45863
#G2 0
#Q 0.317997 -5.36849e-08 -3.42702e-07
#P0 3.595875 1.798 0 0 5.5 -23 0.80357895 0.12095238
#P1 7.997206 -29.999365 23.799848 0 60.999492 10.94175 252.94576 10.94175
#P2 -67.000254 -18.001016 37.5 3.479807 2.6301753 2.8956058 -0.81978664 -43.999873
#P3 2.000254 6.7995936 11.000127 35.819787 0.5 0.5 0.5 0.5
#P4 -11.1895 18.93736 
#N 10
#L Tab Vert  H  K  L  Epoch  Seconds  Ion 3  Temperature  Detector  Monitor
-1.1964211 0.317997 -5.36849e-08 -3.42702e-07 28544 1 130430 39.51 0 685
-0.99642105 0.317997 -5.36849e-08 -3.42702e-07 28547 1 130544 39.511 0 753
-0.79642105 0.317997 -5.36849e-08 -3.42702e-07 28550 1 130636 39.511 0 926
-0.59642105 0.317997 -5.36849e-08 -3.42702e-07 28553 1 130707 39.512 0 1101
-0.39642105 0.317997 -5.36849e-08 -3.42702e-07 28556 1 130753 39.511 0 1434
-0.19642105 0.317997 -5.36849e-08 -3.42702e-07 28560 1 130778 39.511 0 2250
0.0035789474 0.317997 -5.36849e-08 -3.42702e-07 28563 1 130796 39.513 0 4622
0.20357895 0.317997 -5.36849e-08 -3.42702e-07 28566 1 130784 39.513 0 9673
0.40357895 0.317997 -5.36849e-08 -3.42702e-07 28569 1 130759 39.51 0 16210
0.60357895 0.317997 -5.36849e-08 -3.42702e-07 28572 1 130725 39.513 0 20907
0.80357895 0.317997 -5.36849e-08 -3.42702e-07 28575 1 130680 39.511 0 22460
1.0035789 0.317997 -5.36849e-08 -3.42702e-07 28579 1 130644 39.511 0 20907
1.2035789 0.317997 -5.36849e-08 -3.42702e-07 28582 1 130578 39.512 0 16181
1.4035789 0.317997 -5.36849e-08 -3.42702e-07 28585 1 130529 39.513 0 10260
1.6035789 0.317997 -5.36849e-08 -3.42702e-07 28588 1 130452 39.512 1 5341
1.8035789 0.317997 -5.36849e-08 -3.42702e-07 28591 1 130386 39.512 0 2883
2.0035789 0.317997 -5.36849e-08 -3.42702e-07 28594 1 130285 39.512 0 1950
2.2035789 0.317997 -5.36849e-08 -3.42702e-07 28598 1 130203 39.512 0 1353
2.4035789 0.317997 -5.36849e-08 -3.42702e-07 28601 1 130102 39.514 0 984
2.6035789 0.317997 -5.36849e-08 -3.42702e-07 28604 1 129997 39.511 0 652
2.8035789 0.317997 -5.36849e-08 -3.42702e-07 28607 1 129922 39.513 0 505

#S 52  qscan  -0.005 0.005 80 -20000
#D Wed Sep 22 23:39:34 2004
#M 20000  (Monitor)
#G0 0 0 0 0 0 1 0 0 0 0 0 0
#G1 6.28318 6.28318 6.28318 90 90 90 1 1 1 90 90 90 2 0 0 2 1 0 24 12 0 0 0 0 24 3.23 100 0 0 0 1.23984 1.45863
#G2 0
#Q 0.317997 -5.36849e-08 -3.42702e-07
#P0 3.595875 1.798 0 0 5 -23 0.81105263 0.12095238
#P1 7.997206 -29.999365 23.799848 0 60.999492 10.94175 252.94576 10.94175
#P2 -67.000254 -18.001016 37.5 3.479807 2.6301753 2.8956058 -0.81978664 -43.999873
#P3 2.000254 6.7995936 11.000127 35.819787 0.5 0.5 0.5 0.5
#P4 -11.1895 18.93736 
#N 7
#L Q  Epoch  Monitor  Ion 3  Temperature  Seconds  Detector
-0.005 28642 20002 116673 39.51 0.893 110
-0.004875 28643 20002 119311 39.513 0.913 109
-0.00475 28645 20002 115643 39.51 0.885 116
-0.004625 28646 20003 117691 39.51 0.901 117
-0.0045 28647 20005 116635 39.511 0.893 145
-0.004375 28648 20003 117364 39.513 0.898 134
-0.00425 28649 20003 118133 39.511 0.904 133
-0.004125 28650 20002 116299 39.51 0.89 134
-0.004 28651 20001 117734 39.512 0.901 147
-0.003875 28652 20001 117020 39.51 0.896 174
-0.00375 28653 20002 116488 39.512 0.892 171
-0.003625 28654 20001 115960 39.51 0.888 175
-0.0035 28655 20004 116430 39.513 0.891 222
-0.003375 28656 20001 118063 39.513 0.904 226
-0.00325 28657 20003 116303 39.512 0.89 255
-0.003125 28658 20004 117096 39.51 0.896 259
-0.003 28659 20001 117032 39.51 0.896 272
-0.002875 28660 20004 117013 39.511 0.896 313
-0.00275 28661 20001 116390 39.51 0.891 350
-0.002625 28662 20003 118156 39.513 0.905 393
-0.0025 28663 20001 117639 39.512 0.901 427
-0.002375 28664 20002 116830 39.511 0.894 435
-0.00225 28665 20001 118596 39.51 0.908 520
-0.002125 28666 20001 115275 39.511 0.882 597
-0.002 28667 20002 116208 39.511 0.89 657
-0.001875 28668 20002 116315 39.509 0.89 797
-0.00175 28669 20002 116910 39.509 0.895 964
-0.001625 28670 20001 117759 39.511 0.902 1198
-0.0015 28671 20001 116720 39.51 0.894 1533
-0.001375 28672 20004 117340 39.509 0.898 2173
-0.00125 28673 20001 116906 39.51 0.895 3259
-0.001125 28674 20003 118120 39.51 0.904 5086
-0.001 28675 20002 116081 39.511 0.889 9452
-0.000875 28677 20003 117011 39.511 0.896 20346
-0.00075 28678 20001 116549 39.508 0.892 40391
-0.000625 28679 20003 117350 39.51 0.899 66376
-0.0005 28680 20003 117098 39.508 0.897 88937
-0.000375 28681 20003 115320 39.51 0.883 101525
-0.00025 28682 20002 115831 39.508 0.887 109143
-0.000125 28683 20001 116778 39.51 0.894 111456
0 28684 20005 117951 39.511 0.903 107600
0.000125 28685 20002 116684 39.51 0.893 97247
0.00025 28686 20002 117807 39.508 0.902 84638
0.000375 28687 20001 117910 39.51 0.903 70732
0.0005 28688 20001 116542 39.508 0.892 57626
0.000625 28689 20002 116136 39.509 0.889 47355
0.00075 28690 20002 116747 39.509 0.894 40468
0.000875 28691 20001 117144 39.51 0.897 34108
0.001 28692 20001 118423 39.508 0.907 29595
0.001125 28693 20001 117133 39.508 0.897 25168
0.00125 28694 20004 118918 39.507 0.916 21724
0.001375 28695 20001 116959 39.508 0.896 17875
0.0015 28696 20002 116503 39.508 0.892 14710
0.001625 28697 20001 116099 39.508 0.889 12245
0.00175 28698 20001 117359 39.509 0.899 10755
0.001875 28699 20001 116036 39.51 0.889 9284
0.002 28700 20001 117596 39.509 0.9 8331
0.002125 28701 20004 114479 39.508 0.877 6932
0.00225 28702 20001 116452 39.51 0.892 5958
0.002375 28703 20002 116716 39.508 0.894 5057
0.0025 28704 20001 117482 39.509 0.9 4001
0.002625 28705 20001 117502 39.508 0.9 2962
0.00275 28706 20002 116584 39.509 0.893 1848
0.002875 28707 20003 116247 39.509 0.89 1146
0.003 28708 20002 118057 39.508 0.904 693
0.003125 28709 20002 116312 39.509 0.891 448
0.00325 28710 20003 116601 39.509 0.893 314
0.003375 28712 20001 117274 39.507 0.898 271
0.0035 28713 20001 116766 39.509 0.894 205
0.003625 28714 20002 117083 39.507 0.897 179
0.00375 28715 20002 115719 39.507 0.886 160
0.003875 28716 20001 116342 39.508 0.891 118
0.004 28717 20001 117104 39.508 0.897 95
0.004125 28718 20001 116352 39.507 0.891 90
0.00425 28719 20001 116137 39.508 0.89 75
0.004375 28720 20003 117087 39.507 0.897 93
0.0045 28721 20003 117213 39.507 0.898 57
0.004625 28722 20003 116771 39.508 0.895 65
0.00475 28723 20003 118581 39.507 0.908 65
0.004875 28724 20002 116372 39.51 0.891 54
0.005 28725 20004 116431 39.508 0.892 54

#S 53  qscan  0.218 0.2 0.8 50
#D Wed Sep 22 23:41:10 2004
#M 40000  (Monitor)
#G0 0 0 0 0 0 1 0 0 0 0 0 0
#G1 6.28318 6.28318 6.28318 90 90 90 1 1 1 90 90 90 2 0 0 2 1 0 24 12 0 0 0 0 24 3.23 100 0 0 0 1.23984 1.45863
#G2 0
#Q 0.00499733 0 0
#P0 0.0565 0.02825 0 0 0 -23 0.81105263 0.12095238
#P1 7.997206 -29.999365 23.799848 0 60.999492 10.94175 252.94576 10.94175
#P2 -67.000254 -18.001016 37.5 3.479807 2.6301753 2.8956058 -0.81978664 -43.999873
#P3 2.000254 6.7995936 11.000127 35.819787 0.5 0.5 0.5 0.5
#P4 -11.1895 18.93736 
#N 7
#L Q  Epoch  Monitor  Ion 3  Temperature  Seconds  Detector
0.118 28733 40003 232759 39.508 1.784 839
0.128021 28736 40001 233587 39.506 1.79 690
0.137305 28738 40002 230028 39.508 1.763 538
0.145882 28741 40003 231078 39.507 1.771 513
0.153784 28743 40003 232016 39.506 1.778 437
0.16104 28745 40005 230995 39.506 1.77 393
0.167682 28748 40002 231212 39.507 1.772 427
0.17374 28750 40003 232369 39.505 1.781 350
0.179245 28753 40002 229451 39.505 1.759 345
0.184228 28755 40005 231743 39.507 1.776 377
0.18872 28757 40003 232037 39.505 1.778 364
0.192751 28759 40003 229654 39.507 1.76 309
0.196351 28762 40001 233172 39.507 1.787 366
0.199553 28764 40003 230940 39.504 1.77 372
0.202385 28766 40005 230864 39.506 1.77 399
0.20488 28768 40002 232550 39.507 1.783 398
0.207068 28770 40005 232225 39.507 1.78 407
0.208979 28772 40005 229936 39.504 1.763 449
0.210644 28775 40004 231516 39.505 1.775 443
0.212094 28777 40003 231277 39.505 1.773 492
0.21336 28779 40005 231937 39.506 1.778 487
0.214472 28781 40001 233513 39.505 1.79 587
0.215462 28783 40004 230995 39.505 1.771 631
0.216359 28785 40003 233796 39.507 1.792 754
0.217195 28787 40005 231599 39.505 1.776 1026
0.218 28789 40004 230842 39.506 1.77 2783
0.218805 28791 40006 231931 39.504 1.778 21514
0.219641 28793 40002 231504 39.505 1.775 7935
0.220538 28795 40001 232129 39.507 1.78 2909
0.221528 28797 40003 231418 39.506 1.774 1133
0.22264 28799 40005 231062 39.504 1.772 884
0.223906 28801 40007 231222 39.506 1.773 832
0.225356 28803 40005 232540 39.507 1.783 792
0.227021 28805 40006 233249 39.506 1.789 744
0.228932 28807 40002 232678 39.507 1.784 670
0.23112 28810 40002 232860 39.506 1.786 634
0.233615 28812 40002 228761 39.507 1.755 638
0.236447 28814 40004 232286 39.504 1.781 587
0.239649 28816 40003 230592 39.505 1.769 591
0.243249 28818 40007 232254 39.505 1.781 512
0.24728 28821 40002 232674 39.504 1.785 516
0.251772 28823 40003 231603 39.505 1.777 442
0.256755 28825 40003 232434 39.505 1.783 446
0.26226 28828 40005 231002 39.506 1.772 455
0.268318 28830 40005 231050 39.505 1.772 414
0.27496 28832 40005 230849 39.506 1.771 362
0.282216 28835 40004 231644 39.505 1.777 381
0.290118 28837 40006 231600 39.505 1.777 350
0.298695 28840 40004 231057 39.506 1.773 333
0.307979 28842 40001 232887 39.507 1.787 322
0.318 28845 40004 231056 39.504 1.773 288
#C Wed Sep 22 23:53:10 2004.  do /u/clegg/macros/batch.mac.

#S 54  ascan  tabv -1.18895 2.81105  20 1
#D Wed Sep 22 23:53:10 2004
#T 1  (Seconds)
#G0 0 0 0 0 0 1 0 0 0 0 0 0
#G1 6.28318 6.28318 6.28318 90 90 90 1 1 1 90 90 90 2 0 0 2 1 0 24 12 0 0 0 0 24 3.23 100 0 0 0 1.23984 1.45863
#G2 0
#Q 0.317997 -5.36849e-08 -3.42702e-07
#P0 3.595875 1.798 0 0 5.5 -23 0.81105263 0.12095238
#P1 7.997206 -29.999365 23.799848 0 60.999492 10.94175 252.94576 10.94175
#P2 -67.000254 -18.001016 37.5 3.479807 2.6301753 2.8956058 -0.81978664 -43.999873
#P3 2.000254 6.7995936 11.000127 35.819787 0.5 0.5 0.5 0.5
#P4 -11.1895 18.93736 
#N 10
#L Tab Vert  H  K  L  Epoch  Seconds  Ion 3  Temperature  Detector  Monitor
-1.1889474 0.317997 -5.36849e-08 -3.42702e-07 29473 1 129276 39.011 0 704
-0.98894737 0.317997 -5.36849e-08 -3.42702e-07 29476 1 129394 39.012 0 819
-0.78894737 0.317997 -5.36849e-08 -3.42702e-07 29479 1 129472 39.011 0 942
-0.58894737 0.317997 -5.36849e-08 -3.42702e-07 29482 1 129551 39.013 0 1145
-0.38894737 0.317997 -5.36849e-08 -3.42702e-07 29485 1 129593 39.013 0 1481
-0.18894737 0.317997 -5.36849e-08 -3.42702e-07 29489 1 129631 39.011 0 2246
0.011052632 0.317997 -5.36849e-08 -3.42702e-07 29492 1 129639 39.012 0 4758
0.21105263 0.317997 -5.36849e-08 -3.42702e-07 29495 1 129621 39.015 0 9479
0.41105263 0.317997 -5.36849e-08 -3.42702e-07 29498 1 129594 39.012 0 16018
0.61105263 0.317997 -5.36849e-08 -3.42702e-07 29501 1 129578 39.013 0 20561
0.81105263 0.317997 -5.36849e-08 -3.42702e-07 29504 1 129539 39.013 0 22354
1.0110526 0.317997 -5.36849e-08 -3.42702e-07 29508 1 129484 39.013 0 20599
1.2110526 0.317997 -5.36849e-08 -3.42702e-07 29511 1 129426 39.013 0 16086
1.4110526 0.317997 -5.36849e-08 -3.42702e-07 29514 1 129374 39.011 0 10025
1.6110526 0.317997 -5.36849e-08 -3.42702e-07 29517 1 129300 39.011 0 5285
1.8110526 0.317997 -5.36849e-08 -3.42702e-07 29520 1 129226 39.014 0 2846
2.0110526 0.317997 -5.36849e-08 -3.42702e-07 29523 1 129147 39.011 0 1928
2.2110526 0.317997 -5.36849e-08 -3.42702e-07 29527 1 129057 39.011 0 1343
2.4110526 0.317997 -5.36849e-08 -3.42702e-07 29530 1 128949 39.011 0 905
2.6110526 0.317997 -5.36849e-08 -3.42702e-07 29533 1 128865 39.012 0 675
2.8110526 0.317997 -5.36849e-08 -3.42702e-07 29536 1 128808 39.013 0 522

#S 55  qscan  -0.005 0.005 80 -20000
#D Wed Sep 22 23:55:03 2004
#M 20000  (Monitor)
#G0 0 0 0 0 0 1 0 0 0 0 0 0
#G1 6.28318 6.28318 6.28318 90 90 90 1 1 1 90 90 90 2 0 0 2 1 0 24 12 0 0 0 0 24 3.23 100 0 0 0 1.23984 1.45863
#G2 0
#Q 0.317997 -5.36849e-08 -3.42702e-07
#P0 3.595875 1.798 0 0 5 -23 0.818 0.12095238
#P1 7.997206 -29.999365 23.799848 0 60.999492 10.94175 252.94576 10.94175
#P2 -67.000254 -18.001016 37.5 3.479807 2.6301753 2.8956058 -0.81978664 -43.999873
#P3 2.000254 6.7995936 11.000127 35.819787 0.5 0.5 0.5 0.5
#P4 -11.1895 18.93736 
#N 7
#L Q  Epoch  Monitor  Ion 3  Temperature  Seconds  Detector
-0.005 29572 20003 118222 39.011 0.913 105
-0.004875 29573 20004 117613 39.009 0.908 114
-0.00475 29574 20001 115289 39.011 0.89 120
-0.004625 29575 20002 115824 39.012 0.894 112
-0.0045 29576 20002 115150 39.011 0.889 120
-0.004375 29577 20002 116564 39.011 0.9 140
-0.00425 29578 20002 117090 39.009 0.904 141
-0.004125 29579 20002 115773 39.012 0.894 161
-0.004 29580 20001 118292 39.011 0.913 190
-0.003875 29581 20001 116393 39.01 0.899 159
-0.00375 29582 20001 116775 39.013 0.901 198
-0.003625 29583 20001 117050 39.012 0.904 193
-0.0035 29584 20001 115652 39.011 0.893 201
-0.003375 29585 20001 117836 39.013 0.91 226
-0.00325 29586 20002 115820 39.01 0.894 261
-0.003125 29587 20002 116015 39.01 0.896 275
-0.003 29588 20002 116255 39.01 0.898 317
-0.002875 29589 20002 116272 39.012 0.898 313
-0.00275 29590 20003 116582 39.013 0.9 334
-0.002625 29591 20003 117790 39.01 0.909 390
-0.0025 29592 20004 116840 39.01 0.902 429
-0.002375 29593 20002 116032 39.01 0.896 457
-0.00225 29594 20001 117105 39.012 0.904 529
-0.002125 29595 20002 116503 39.013 0.899 549
-0.002 29596 20004 117784 39.011 0.909 700
-0.001875 29597 20001 116941 39.011 0.903 760
-0.00175 29598 20001 119162 39.012 0.92 988
-0.001625 29599 20003 117415 39.011 0.907 1218
-0.0015 29601 20001 116405 39.011 0.899 1632
-0.001375 29602 20002 116910 39.013 0.903 2228
-0.00125 29603 20002 117152 39.012 0.905 3303
-0.001125 29604 20002 116840 39.011 0.902 5138
-0.001 29605 20003 118072 39.011 0.912 9789
-0.000875 29606 20002 115919 39.009 0.895 20571
-0.00075 29607 20001 116625 39.011 0.901 39961
-0.000625 29608 20002 117825 39.011 0.91 67668
-0.0005 29609 20001 117256 39.01 0.905 89661
-0.000375 29610 20004 116780 39.011 0.902 102723
-0.00025 29611 20003 116736 39.009 0.902 109942
-0.000125 29612 20003 115934 39.009 0.895 110952
0 29613 20001 117111 39.011 0.904 106799
0.000125 29614 20002 118275 39.011 0.913 98451
0.00025 29615 20002 116586 39.01 0.9 82857
0.000375 29616 20003 116303 39.01 0.898 70386
0.0005 29617 20001 117504 39.01 0.907 58311
0.000625 29618 20001 116132 39.011 0.897 47830
0.00075 29619 20004 117570 39.009 0.908 40744
0.000875 29620 20004 116460 39.011 0.899 34378
0.001 29621 20001 118100 39.01 0.912 30016
0.001125 29622 20001 116309 39.009 0.898 25273
0.00125 29623 20002 118149 39.01 0.913 22286
0.001375 29624 20001 117043 39.01 0.904 18207
0.0015 29625 20002 116874 39.009 0.903 14987
0.001625 29626 20001 116309 39.011 0.898 12446
0.00175 29628 20003 116202 39.011 0.897 10759
0.001875 29629 20001 118580 39.011 0.916 9387
0.002 29630 20001 117729 39.01 0.909 8377
0.002125 29631 20002 116659 39.009 0.901 7148
0.00225 29632 20002 116160 39.011 0.897 6079
0.002375 29633 20002 118617 39.007 0.916 5233
0.0025 29634 20002 116516 39.01 0.9 4177
0.002625 29635 20001 116026 39.009 0.896 3000
0.00275 29636 20001 116772 39.009 0.903 1985
0.002875 29637 20001 115006 39.009 0.888 1146
0.003 29638 20003 117818 39.007 0.91 738
0.003125 29639 20001 119054 39.009 0.92 457
0.00325 29640 20002 116300 39.009 0.898 360
0.003375 29641 20001 117828 39.01 0.91 272
0.0035 29642 20001 115662 39.01 0.894 200
0.003625 29643 20003 117130 39.009 0.905 161
0.00375 29644 20001 116749 39.008 0.902 116
0.003875 29645 20001 116365 39.01 0.899 127
0.004 29646 20002 116571 39.007 0.901 113
0.004125 29647 20002 117653 39.009 0.909 95
0.00425 29648 20003 115933 39.009 0.896 90
0.004375 29649 20001 115183 39.01 0.89 70
0.0045 29650 20001 116051 39.007 0.897 85
0.004625 29651 20004 116036 39.01 0.896 59
0.00475 29652 20003 115385 39.009 0.891 57
0.004875 29653 20003 115511 39.007 0.892 56
0.005 29654 20002 115998 39.006 0.896 53

#S 56  qscan  0.218 0.2 0.8 50
#D Wed Sep 22 23:56:39 2004
#M 40000  (Monitor)
#G0 0 0 0 0 0 1 0 0 0 0 0 0
#G1 6.28318 6.28318 6.28318 90 90 90 1 1 1 90 90 90 2 0 0 2 1 0 24 12 0 0 0 0 24 3.23 100 0 0 0 1.23984 1.45863
#G2 0
#Q 0.00499733 0 0
#P0 0.0565 0.02825 0 0 0 -23 0.818 0.12095238
#P1 7.997206 -29.999365 23.799848 0 60.999492 10.94175 252.94576 10.94175
#P2 -67.000254 -18.001016 37.5 3.479807 2.6301753 2.8956058 -0.81978664 -43.999873
#P3 2.000254 6.7995936 11.000127 35.819787 0.5 0.5 0.5 0.5
#P4 -11.1895 18.93736 
#N 7
#L Q  Epoch  Monitor  Ion 3  Temperature  Seconds  Detector
0.118 29663 40003 232300 39.007 1.796 887
0.128021 29665 40001 232012 39.008 1.793 687
0.137305 29668 40003 230440 39.007 1.781 562
0.145882 29670 40003 231334 39.009 1.788 470
0.153784 29673 40003 231468 39.006 1.789 476
0.16104 29675 40005 234308 39.007 1.811 409
0.167682 29678 40004 234182 39.008 1.81 428
0.17374 29680 40001 232798 39.008 1.8 415
0.179245 29682 40006 230870 39.007 1.785 363
0.184228 29685 40004 228940 39.01 1.77 364
0.18872 29687 40003 232200 39.008 1.795 341
0.192751 29689 40003 232700 39.009 1.799 371
0.196351 29691 40001 233164 39.005 1.802 351
0.199553 29694 40003 231097 39.008 1.787 365
0.202385 29696 40003 231699 39.007 1.791 359
0.20488 29698 40003 231055 39.007 1.786 400
0.207068 29700 40003 231317 39.006 1.788 409
0.208979 29702 40002 230549 39.007 1.783 418
0.210644 29704 40005 233134 39.008 1.803 452
0.212094 29707 40002 230673 39.007 1.784 486
0.21336 29709 40003 229655 39.008 1.776 513
0.214472 29711 40005 230931 39.007 1.786 570
0.215462 29713 40001 231770 39.007 1.792 661
0.216359 29715 40005 231711 39.007 1.792 748
0.217195 29717 40002 230894 39.006 1.786 1005
0.218 29719 40001 232636 39.005 1.799 2870
0.218805 29721 40002 231256 39.005 1.788 23377
0.219641 29723 40004 231322 39.005 1.789 8828
0.220538 29725 40007 229265 39.007 1.773 2973
0.221528 29727 40005 231159 39.006 1.788 1183
0.22264 29729 40001 232121 39.008 1.795 928
0.223906 29731 39991 229553 39.005 1.776 838
0.225356 29733 40002 230257 39.007 1.781 769
0.227021 29735 40004 232019 39.006 1.795 715
0.228932 29737 40001 230958 39.007 1.786 601
0.23112 29740 40002 231363 39.007 1.79 615
0.233615 29742 40003 231354 39.006 1.79 601
0.236447 29744 40004 229071 39.006 1.772 569
0.239649 29746 40002 232233 39.006 1.797 527
0.243249 29748 40007 231745 39.003 1.793 532
0.24728 29751 40005 231723 39.005 1.793 513
0.251772 29753 40006 232043 39.006 1.796 467
0.256755 29755 40006 230751 39.004 1.785 450
0.26226 29758 40003 230959 39.007 1.787 431
0.268318 29760 40007 231299 39.005 1.79 420
0.27496 29762 40002 231968 39.006 1.795 409
0.282216 29765 40003 231325 39.005 1.79 359
0.290118 29767 40004 230569 39.005 1.784 352
0.298695 29770 40004 230889 39.005 1.787 356
0.307979 29772 40002 231396 39.004 1.791 300
0.318 29775 40004 231924 39.007 1.795 296
#C Thu Sep 23 00:08:40 2004.  do /u/clegg/macros/batch.mac.

#S 57  ascan  tabv -1.182 2.818  20 1
#D Thu Sep 23 00:08:40 2004
#T 1  (Seconds)
#G0 0 0 0 0 0 1 0 0 0 0 0 0
#G1 6.28318 6.28318 6.28318 90 90 90 1 1 1 90 90 90 2 0 0 2 1 0 24 12 0 0 0 0 24 3.23 100 0 0 0 1.23984 1.45863
#G2 0
#Q 0.317997 -5.36849e-08 -3.42702e-07
#P0 3.595875 1.798 0 0 5.5 -23 0.818 0.12095238
#P1 7.997206 -29.999365 23.799848 0 60.999492 10.94175 252.94576 10.94175
#P2 -67.000254 -18.001016 37.5 3.479807 2.6301753 2.8956058 -0.81978664 -43.999873
#P3 2.000254 6.7995936 11.000127 35.819787 0.5 0.5 0.5 0.5
#P4 -11.1895 18.93736 
#N 10
#L Tab Vert  H  K  L  Epoch  Seconds  Ion 3  Temperature  Detector  Monitor
-1.182 0.317997 -5.36849e-08 -3.42702e-07 30403 1 128144 38.511 0 707
-0.982 0.317997 -5.36849e-08 -3.42702e-07 30406 1 128250 38.512 0 815
-0.782 0.317997 -5.36849e-08 -3.42702e-07 30409 1 128338 38.511 0 883
-0.582 0.317997 -5.36849e-08 -3.42702e-07 30413 1 128390 38.512 0 1112
-0.382 0.317997 -5.36849e-08 -3.42702e-07 30416 1 128445 38.514 0 1436
-0.182 0.317997 -5.36849e-08 -3.42702e-07 30419 1 128466 38.513 0 2251
0.018 0.317997 -5.36849e-08 -3.42702e-07 30422 1 128461 38.512 0 4719
0.218 0.317997 -5.36849e-08 -3.42702e-07 30425 1 128442 38.512 0 9495
0.418 0.317997 -5.36849e-08 -3.42702e-07 30428 1 128440 38.512 0 15864
0.618 0.317997 -5.36849e-08 -3.42702e-07 30432 1 128395 38.511 0 20316
0.818 0.317997 -5.36849e-08 -3.42702e-07 30435 1 128355 38.513 0 22157
1.018 0.317997 -5.36849e-08 -3.42702e-07 30438 1 128302 38.512 0 20642
1.218 0.317997 -5.36849e-08 -3.42702e-07 30441 1 128239 38.512 0 16345
1.418 0.317997 -5.36849e-08 -3.42702e-07 30444 1 128189 38.513 0 10043
1.618 0.317997 -5.36849e-08 -3.42702e-07 30447 1 128121 38.513 0 5383
1.818 0.317997 -5.36849e-08 -3.42702e-07 30451 1 128040 38.513 0 2910
2.018 0.317997 -5.36849e-08 -3.42702e-07 30454 1 127961 38.513 0 1954
2.218 0.317997 -5.36849e-08 -3.42702e-07 30457 1 127865 38.514 0 1357
2.418 0.317997 -5.36849e-08 -3.42702e-07 30460 1 127770 38.513 0 960
2.618 0.317997 -5.36849e-08 -3.42702e-07 30463 1 127665 38.515 0 729
2.818 0.317997 -5.36849e-08 -3.42702e-07 30466 1 127588 38.513 0 551

#S 58  qscan  -0.005 0.005 80 -20000
#D Thu Sep 23 00:10:34 2004
#M 20000  (Monitor)
#G0 0 0 0 0 0 1 0 0 0 0 0 0
#G1 6.28318 6.28318 6.28318 90 90 90 1 1 1 90 90 90 2 0 0 2 1 0 24 12 0 0 0 0 24 3.23 100 0 0 0 1.23984 1.45863
#G2 0
#Q 0.317997 -5.36849e-08 -3.42702e-07
#P0 3.595875 1.798 0 0 5 -23 0.82642105 0.12095238
#P1 7.997206 -29.999365 23.799848 0 60.999492 10.94175 252.94576 10.94175
#P2 -67.000254 -18.001016 37.5 3.479807 2.6301753 2.8956058 -0.81978664 -43.999873
#P3 2.000254 6.7995936 11.000127 35.819787 0.5 0.5 0.5 0.5
#P4 -11.1895 18.93736 
#N 7
#L Q  Epoch  Monitor  Ion 3  Temperature  Seconds  Detector
-0.005 30502 20001 117028 38.512 0.912 102
-0.004875 30503 20001 115780 38.512 0.902 94
-0.00475 30504 20001 116223 38.512 0.906 125
-0.004625 30505 20004 116726 38.514 0.91 112
-0.0045 30506 20001 118473 38.51 0.923 116
-0.004375 30507 20003 116221 38.512 0.906 156
-0.00425 30508 20001 117392 38.511 0.915 160
-0.004125 30509 20001 116919 38.51 0.911 114
-0.004 30510 20001 116932 38.511 0.911 157
-0.003875 30511 20003 117138 38.512 0.913 171
-0.00375 30512 20002 117308 38.51 0.914 206
-0.003625 30513 20001 117045 38.51 0.912 190
-0.0035 30514 20003 116551 38.51 0.908 232
-0.003375 30515 20001 116554 38.512 0.908 232
-0.00325 30516 20002 116796 38.511 0.91 248
-0.003125 30517 20002 116180 38.511 0.906 258
-0.003 30519 20005 117773 38.508 0.918 326
-0.002875 30520 20002 115915 38.511 0.903 318
-0.00275 30521 20001 116107 38.511 0.905 345
-0.002625 30522 20001 118088 38.51 0.92 394
-0.0025 30523 20002 115997 38.51 0.904 413
-0.002375 30524 20002 117089 38.51 0.912 484
-0.00225 30525 20002 116541 38.51 0.908 493
-0.002125 30526 20002 116333 38.509 0.907 596
-0.002 30527 20001 118205 38.513 0.921 720
-0.001875 30528 20001 116412 38.509 0.907 816
-0.00175 30529 20002 118181 38.51 0.921 1003
-0.001625 30530 20001 115062 38.509 0.897 1176
-0.0015 30531 20002 118082 38.511 0.92 1540
-0.001375 30532 20005 118183 38.511 0.921 2221
-0.00125 30533 20002 116480 38.509 0.908 3240
-0.001125 30534 20001 116116 38.51 0.905 5126
-0.001 30535 20002 117428 38.509 0.915 9375
-0.000875 30536 20004 116302 38.508 0.906 20201
-0.00075 30537 20002 117388 38.511 0.915 40332
-0.000625 30538 20001 115415 38.51 0.9 65274
-0.0005 30539 20002 116790 38.51 0.91 89209
-0.000375 30540 20006 116793 38.508 0.91 102447
-0.00025 30541 20003 116591 38.508 0.909 109071
-0.000125 30542 20003 117318 38.51 0.914 110976
0 30544 20002 118037 38.51 0.92 107325
0.000125 30545 20002 117729 38.509 0.918 97860
0.00025 30546 20003 117469 38.51 0.916 83966
0.000375 30547 20003 116901 38.51 0.911 70987
0.0005 30548 20003 117045 38.508 0.912 58225
0.000625 30549 20002 115492 38.51 0.9 47493
0.00075 30550 20001 117927 38.509 0.919 40922
0.000875 30551 20002 115691 38.511 0.902 34001
0.001 30552 20001 116613 38.51 0.909 29795
0.001125 30553 20004 117129 38.51 0.913 25624
0.00125 30554 20002 117753 38.509 0.918 21973
0.001375 30555 20002 116508 38.509 0.908 18362
0.0015 30556 20001 115883 38.508 0.903 14545
0.001625 30557 20001 117509 38.509 0.916 12676
0.00175 30558 20001 117127 38.51 0.913 10881
0.001875 30559 20003 116268 38.51 0.906 9266
0.002 30560 20002 116667 38.51 0.91 8194
0.002125 30561 20003 117798 38.51 0.918 7423
0.00225 30562 20003 117246 38.51 0.914 6210
0.002375 30563 20002 116618 38.51 0.909 5061
0.0025 30564 20004 117376 38.51 0.915 4173
0.002625 30566 20001 116683 38.509 0.91 3039
0.00275 30567 20002 118002 38.509 0.92 2007
0.002875 30568 20001 116735 38.51 0.91 1197
0.003 30569 20001 115408 38.509 0.9 750
0.003125 30570 20001 116939 38.509 0.912 471
0.00325 30571 20004 116403 38.507 0.908 345
0.003375 30572 20001 115291 38.508 0.899 213
0.0035 30573 20003 117315 38.51 0.915 220
0.003625 30574 20003 116373 38.509 0.907 174
0.00375 30575 20001 118155 38.508 0.921 152
0.003875 30576 20001 117211 38.509 0.914 130
0.004 30577 20001 117174 38.51 0.914 113
0.004125 30578 20001 117143 38.508 0.913 89
0.00425 30579 20003 118230 38.509 0.922 93
0.004375 30580 20003 116586 38.507 0.909 89
0.0045 30581 20007 117428 38.508 0.916 65
0.004625 30582 20003 116039 38.508 0.905 54
0.00475 30583 20001 117368 38.508 0.915 50
0.004875 30584 20003 116463 38.507 0.908 50
0.005 30585 20001 116422 38.507 0.908 51

#S 59  qscan  0.218 0.2 0.8 50
#D Thu Sep 23 00:12:10 2004
#M 40000  (Monitor)
#G0 0 0 0 0 0 1 0 0 0 0 0 0
#G1 6.28318 6.28318 6.28318 90 90 90 1 1 1 90 90 90 2 0 0 2 1 0 24 12 0 0 0 0 24 3.23 100 0 0 0 1.23984 1.45863
#G2 0
#Q 0.00499733 0 0
#P0 0.0565 0.02825 0 0 0 -23 0.82642105 0.12095238
#P1 7.997206 -29.999365 23.799848 0 60.999492 10.94175 252.94576 10.94175
#P2 -67.000254 -18.001016 37.5 3.479807 2.6301753 2.8956058 -0.81978664 -43.999873
#P3 2.000254 6.7995936 11.000127 35.819787 0.5 0.5 0.5 0.5
#P4 -11.1895 18.93736 
#N 7
#L Q  Epoch  Monitor  Ion 3  Temperature  Seconds  Detector
0.118 30594 40003 230418 38.507 1.797 900
0.128021 30596 40002 230501 38.507 1.798 637
0.137305 30599 40002 229728 38.507 1.792 599
0.145882 30601 40002 230566 38.509 1.799 489
0.153784 30604 40003 232177 38.507 1.811 412
0.16104 30606 40008 231357 38.507 1.805 390
0.167682 30609 40002 229295 38.507 1.789 342
0.17374 30611 40002 231645 38.505 1.807 389
0.179245 30613 40001 231333 38.508 1.805 354
0.184228 30616 40002 229276 38.505 1.789 338
0.18872 30618 40001 231759 38.504 1.808 359
0.192751 30620 40006 232270 38.505 1.812 348
0.196351 30622 40002 230687 38.505 1.8 357
0.199553 30625 40006 229442 38.507 1.79 386
0.202385 30627 40003 230801 38.506 1.801 410
0.20488 30629 40003 230563 38.507 1.799 410
0.207068 30631 40005 229805 38.508 1.793 403
0.208979 30633 40001 232299 38.507 1.812 445
0.210644 30636 40001 230383 38.505 1.803 447
0.212094 30638 40002 231196 38.506 1.804 481
0.21336 30640 40002 230716 38.507 1.8 501
0.214472 30642 40003 231220 38.506 1.804 579
0.215462 30644 40002 232253 38.507 1.812 677
0.216359 30646 40006 232621 38.507 1.815 746
0.217195 30648 40003 228971 38.504 1.787 989
0.218 30650 40006 230817 38.505 1.801 2631
0.218805 30652 40003 231664 38.505 1.808 25225
0.219641 30654 40004 229348 38.506 1.79 9589
0.220538 30656 40001 229962 38.505 1.795 3174
0.221528 30658 40005 230784 38.504 1.801 1219
0.22264 30660 40002 229570 38.505 1.792 899
0.223906 30662 40003 230794 38.503 1.801 824
0.225356 30665 40004 231100 38.506 1.804 751
0.227021 30667 40002 231240 38.507 1.805 756
0.228932 30669 40004 231469 38.506 1.807 715
0.23112 30671 40003 230757 38.507 1.801 648
0.233615 30673 40003 235334 38.505 1.837 580
0.236447 30675 40006 231909 38.506 1.81 538
0.239649 30678 40004 229840 38.505 1.794 537
0.243249 30680 40003 228934 38.505 1.787 532
0.24728 30682 40002 230871 38.504 1.802 472
0.251772 30685 40007 231456 38.507 1.807 469
0.256755 30687 40003 231723 38.505 1.809 494
0.26226 30689 40002 230466 38.505 1.799 399
0.268318 30692 40003 230177 38.504 1.797 375
0.27496 30694 40002 230378 38.504 1.799 373
0.282216 30696 40004 228883 38.506 1.787 383
0.290118 30699 40005 233599 38.505 1.824 363
0.298695 30701 40004 230597 38.505 1.8 316
0.307979 30704 40003 231469 38.503 1.807 334
0.318 30707 40002 231975 38.504 1.811 294
#C Thu Sep 23 00:24:12 2004.  do /u/clegg/macros/batch.mac.

#S 60  ascan  tabv -1.17358 2.82642  20 1
#D Thu Sep 23 00:24:12 2004
#T 1  (Seconds)
#G0 0 0 0 0 0 1 0 0 0 0 0 0
#G1 6.28318 6.28318 6.28318 90 90 90 1 1 1 90 90 90 2 0 0 2 1 0 24 12 0 0 0 0 24 3.23 100 0 0 0 1.23984 1.45863
#G2 0
#Q 0.317997 -5.36849e-08 -3.42702e-07
#P0 3.595875 1.798 0 0 5.5 -23 0.82642105 0.12095238
#P1 7.997206 -29.999365 23.799848 0 60.999492 10.94175 252.94576 10.94175
#P2 -67.000254 -18.001016 37.5 3.479807 2.6301753 2.8956058 -0.81978664 -43.999873
#P3 2.000254 6.7995936 11.000127 35.819787 0.5 0.5 0.5 0.5
#P4 -11.1895 18.93736 
#N 10
#L Tab Vert  H  K  L  Epoch  Seconds  Ion 3  Temperature  Detector  Monitor
-1.1735789 0.317997 -5.36849e-08 -3.42702e-07 31335 1 127068 38.01 0 726
-0.97357895 0.317997 -5.36849e-08 -3.42702e-07 31338 1 127178 38.011 0 743
-0.77357895 0.317997 -5.36849e-08 -3.42702e-07 31341 1 127230 38.011 0 887
-0.57357895 0.317997 -5.36849e-08 -3.42702e-07 31344 1 127311 38.013 0 1131
-0.37357895 0.317997 -5.36849e-08 -3.42702e-07 31347 1 127338 38.013 0 1399
-0.17357895 0.317997 -5.36849e-08 -3.42702e-07 31351 1 127366 38.012 0 2244
0.026421053 0.317997 -5.36849e-08 -3.42702e-07 31354 1 127361 38.014 0 4308
0.22642105 0.317997 -5.36849e-08 -3.42702e-07 31357 1 127341 38.014 0 9423
0.42642105 0.317997 -5.36849e-08 -3.42702e-07 31360 1 127320 38.013 0 15537
0.62642105 0.317997 -5.36849e-08 -3.42702e-07 31363 1 127288 38.014 0 20289
0.82642105 0.317997 -5.36849e-08 -3.42702e-07 31366 1 127229 38.013 0 21846
1.0264211 0.317997 -5.36849e-08 -3.42702e-07 31370 1 127174 38.012 0 20360
1.2264211 0.317997 -5.36849e-08 -3.42702e-07 31373 1 127117 38.015 0 16102
1.4264211 0.317997 -5.36849e-08 -3.42702e-07 31376 1 127064 38.015 0 9940
1.6264211 0.317997 -5.36849e-08 -3.42702e-07 31379 1 126997 38.013 0 5171
1.8264211 0.317997 -5.36849e-08 -3.42702e-07 31382 1 126918 38.013 0 2824
2.0264211 0.317997 -5.36849e-08 -3.42702e-07 31385 1 126823 38.013 0 1926
2.2264211 0.317997 -5.36849e-08 -3.42702e-07 31389 1 126722 38.012 0 1320
2.4264211 0.317997 -5.36849e-08 -3.42702e-07 31392 1 126629 38.013 0 906
2.6264211 0.317997 -5.36849e-08 -3.42702e-07 31395 1 126521 38.014 0 655
2.8264211 0.317997 -5.36849e-08 -3.42702e-07 31398 1 126459 38.014 0 525

#S 61  qscan  -0.005 0.005 80 -20000
#D Thu Sep 23 00:26:05 2004
#M 20000  (Monitor)
#G0 0 0 0 0 0 1 0 0 0 0 0 0
#G1 6.28318 6.28318 6.28318 90 90 90 1 1 1 90 90 90 2 0 0 2 1 0 24 12 0 0 0 0 24 3.23 100 0 0 0 1.23984 1.45863
#G2 0
#Q 0.317997 -5.36849e-08 -3.42702e-07
#P0 3.595875 1.798 0 0 5 -23 0.83494737 0.12095238
#P1 7.997206 -29.999365 23.799848 0 60.999492 10.94175 252.94576 10.94175
#P2 -67.000254 -18.001016 37.5 3.479807 2.6301753 2.8956058 -0.81978664 -43.999873
#P3 2.000254 6.7995936 11.000127 35.819787 0.5 0.5 0.5 0.5
#P4 -11.1895 18.93736 
#N 7
#L Q  Epoch  Monitor  Ion 3  Temperature  Seconds  Detector
-0.005 31433 20004 116456 38.013 0.915 96
-0.004875 31435 20003 117589 38.014 0.924 118
-0.00475 31436 20001 117392 38.014 0.923 110
-0.004625 31437 20001 116892 38.012 0.919 145
-0.0045 31438 20003 114950 38.012 0.904 125
-0.004375 31439 20003 116143 38.013 0.913 136
-0.00425 31440 20002 116113 38.014 0.913 116
-0.004125 31441 20002 116756 38.012 0.918 149
-0.004 31442 20002 117362 38.013 0.923 158
-0.003875 31443 20003 116491 38.013 0.916 170
-0.00375 31444 20002 117006 38.012 0.92 159
-0.003625 31445 20002 116707 38.013 0.917 206
-0.0035 31446 20001 116804 38.011 0.918 189
-0.003375 31447 20002 116348 38.012 0.915 217
-0.00325 31448 20002 116578 38.01 0.917 246
-0.003125 31449 20002 116908 38.013 0.919 274
-0.003 31450 20001 116832 38.013 0.919 258
-0.002875 31451 20003 116812 38.012 0.918 291
-0.00275 31452 20003 115224 38.013 0.906 341
-0.002625 31453 20002 116590 38.014 0.917 386
-0.0025 31455 20005 116552 38.012 0.916 481
-0.002375 31456 20001 115104 38.01 0.905 456
-0.00225 31457 20001 116056 38.012 0.912 563
-0.002125 31458 20002 117613 38.011 0.925 609
-0.002 31459 20003 115941 38.012 0.912 715
-0.001875 31460 20003 117349 38.01 0.923 806
-0.00175 31461 20001 117173 38.011 0.921 1009
-0.001625 31462 20001 115197 38.013 0.906 1097
-0.0015 31463 20001 117059 38.012 0.921 1495
-0.001375 31464 20003 118080 38.011 0.929 2174
-0.00125 31465 20002 115231 38.012 0.906 3039
-0.001125 31466 20002 116657 38.013 0.917 4914
-0.001 31467 20006 117061 38.012 0.921 9203
-0.000875 31468 20004 115628 38.012 0.909 19303
-0.00075 31469 20003 117516 38.013 0.924 38788
-0.000625 31470 20001 116342 38.012 0.915 64913
-0.0005 31471 20001 116764 38.01 0.918 88008
-0.000375 31472 20002 115401 38.011 0.908 99707
-0.00025 31473 20001 116654 38.012 0.917 108965
-0.000125 31474 20002 116834 38.01 0.919 109912
0 31476 20001 117155 38.01 0.921 106880
0.000125 31477 20001 117266 38.011 0.922 98250
0.00025 31478 20003 116419 38.01 0.915 83964
0.000375 31479 20001 116933 38.009 0.92 72162
0.0005 31480 20001 115581 38.011 0.909 59212
0.000625 31481 20004 116237 38.011 0.914 48973
0.00075 31482 20001 116326 38.009 0.915 41453
0.000875 31483 20003 116325 38.01 0.915 35258
0.001 31484 20003 117293 38.011 0.922 30584
0.001125 31485 20004 117986 38.01 0.928 26194
0.00125 31486 20001 116960 38.01 0.92 22302
0.001375 31487 20001 117009 38.011 0.92 19027
0.0015 31488 20004 118123 38.01 0.929 15437
0.001625 31489 20001 116789 38.009 0.919 12847
0.00175 31490 20001 116979 38.01 0.92 11238
0.001875 31491 20002 117871 38.011 0.927 9887
0.002 31492 20001 116455 38.011 0.916 8558
0.002125 31493 20002 116796 38.011 0.919 7367
0.00225 31495 20001 116608 38.009 0.917 6245
0.002375 31496 20003 118479 38.011 0.932 5253
0.0025 31497 20001 115598 38.011 0.909 4089
0.002625 31498 20004 116353 38.008 0.915 3155
0.00275 31499 20001 116941 38.009 0.92 2102
0.002875 31500 20002 116879 38.01 0.919 1341
0.003 31501 20002 116914 38.01 0.92 798
0.003125 31502 20006 118246 38.01 0.93 515
0.00325 31503 20002 115953 38.009 0.912 354
0.003375 31504 20003 117852 38.008 0.927 274
0.0035 31505 20001 115812 38.008 0.911 224
0.003625 31506 20002 117596 38.01 0.925 189
0.00375 31507 20003 117404 38.008 0.924 154
0.003875 31508 20005 115821 38.008 0.911 140
0.004 31509 20003 117328 38.01 0.923 106
0.004125 31510 20001 116195 38.01 0.914 91
0.00425 31511 20005 117511 38.008 0.924 93
0.004375 31512 20003 117353 38.007 0.923 78
0.0045 31514 20001 117786 38.01 0.927 66
0.004625 31515 20003 115497 38.008 0.909 59
0.00475 31516 20001 116857 38.009 0.919 59
0.004875 31517 20001 115628 38.007 0.91 48
0.005 31518 20001 116472 38.008 0.916 50

#S 62  qscan  0.218 0.2 0.8 50
#D Thu Sep 23 00:27:43 2004
#M 40000  (Monitor)
#G0 0 0 0 0 0 1 0 0 0 0 0 0
#G1 6.28318 6.28318 6.28318 90 90 90 1 1 1 90 90 90 2 0 0 2 1 0 24 12 0 0 0 0 24 3.23 100 0 0 0 1.23984 1.45863
#G2 0
#Q 0.00499733 0 0
#P0 0.0565 0.02825 0 0 0 -23 0.83494737 0.12095238
#P1 7.997206 -29.999365 23.799848 0 60.999492 10.94175 252.94576 10.94175
#P2 -67.000254 -18.001016 37.5 3.479807 2.6301753 2.8956058 -0.81978664 -43.999873
#P3 2.000254 6.7995936 11.000127 35.819787 0.5 0.5 0.5 0.5
#P4 -11.1895 18.93736 
#N 7
#L Q  Epoch  Monitor  Ion 3  Temperature  Seconds  Detector
0.118 31526 40005 231376 38.006 1.821 858
0.128021 31529 40003 231785 38.007 1.824 706
0.137305 31531 40002 231475 38.006 1.822 571
0.145882 31534 40003 229270 38.008 1.804 490
0.153784 31536 40002 229528 38.008 1.807 463
0.16104 31539 40002 232031 38.007 1.826 415
0.167682 31541 40001 230901 38.007 1.818 365
0.17374 31543 40001 229664 38.008 1.808 350
0.179245 31546 40001 231883 38.007 1.825 365
0.184228 31548 40002 232065 38.008 1.827 329
0.18872 31550 40002 231125 38.005 1.819 354
0.192751 31553 40003 230950 38.006 1.818 356
0.196351 31555 40003 230284 38.006 1.813 335
0.199553 31557 40001 230633 38.006 1.816 394
0.202385 31559 40003 232455 38.008 1.83 371
0.20488 31562 40004 233772 38.007 1.841 398
0.207068 31564 40002 230990 38.008 1.819 438
0.208979 31566 40002 231881 38.005 1.826 412
0.210644 31568 40005 230141 38.008 1.812 436
0.212094 31570 40003 229573 38.006 1.808 501
0.21336 31572 40003 228118 38.005 1.796 485
0.214472 31574 40004 231791 38.007 1.825 551
0.215462 31577 40002 233162 38.006 1.839 630
0.216359 31579 40005 230975 38.006 1.818 703
0.217195 31581 40004 232129 38.007 1.828 958
0.218 31583 40003 231908 38.006 1.826 2448
0.218805 31585 40003 232652 38.007 1.832 26329
0.219641 31587 40004 230704 38.006 1.817 10652
0.220538 31589 40002 229785 38.004 1.809 3410
0.221528 31591 40005 230356 38.006 1.814 1279
0.22264 31593 40003 230533 38.006 1.815 951
0.223906 31595 40004 232857 38.006 1.834 871
0.225356 31597 40003 229259 38.006 1.806 762
0.227021 31600 40004 231199 38.004 1.821 701
0.228932 31602 40002 231691 38.006 1.825 677
0.23112 31604 40003 231292 38.005 1.822 616
0.233615 31606 40004 229880 38.004 1.81 583
0.236447 31608 40003 230548 38.006 1.816 588
0.239649 31611 40002 233751 38.005 1.841 579
0.243249 31613 40004 230793 38.006 1.818 477
0.24728 31615 40002 231537 38.005 1.824 472
0.251772 31618 40003 230333 38.005 1.814 466
0.256755 31620 40003 230042 38.004 1.812 461
0.26226 31622 40004 231286 38.006 1.822 401
0.268318 31625 40002 231672 38.003 1.825 392
0.27496 31627 40005 230002 38.004 1.812 371
0.282216 31630 40003 230762 38.006 1.818 347
0.290118 31632 40005 231678 38.005 1.825 348
0.298695 31635 40006 231151 38.004 1.821 321
0.307979 31637 40001 231971 38.007 1.828 340
0.318 31640 40003 231056 38.004 1.82 313
